File: Raw Electrochem Data/Oligomer 1/Blank electrolyte/CV_100mVps.txt
Potential - Start -0.2 V, Upper Vertex 1.5 V, Lower Vertex -0.2 V, Stop -0.19 V; Scan - # end cross 5, Rate 0.1 Vps, Step 0.01 V
Scan	Index	Time (s)	Potential applied (V)	WE(1).Potential (V)	WE(1).Current (A)	WE(1).Power (W)	WE(1).Resistance (Ω)	WE(1).Charge (C)
1	1	74.4017	-0.189972	-0.189911	-1.58081e-07	3.00213e-08	1201351.375	0
1	3	74.6031	-0.16983	-0.169678	-1.0376e-07	1.76057e-08	1635294.25	-2.60621e-08
1	5	74.8046	-0.149689	-0.149567	-6.68335e-08	9.99606e-09	2237899.75	-4.31347e-08
1	7	75.006	-0.129547	-0.129425	-3.69263e-08	4.77918e-09	3504958.75	-5.35226e-08
1	9	75.2074	-0.109406	-0.109344	-1.06812e-08	1.16792e-09	10237143	-5.82863e-08
1	11	75.4088	-0.0892639	-0.0892639	1.77002e-08	-1.57999e-09	-5043103.5	-5.75948e-08
1	13	75.6102	-0.0691223	-0.0690613	5.31006e-08	-3.66719e-09	-1300574.75	-5.06183e-08
1	15	75.8116	-0.0489807	-0.0488586	1.05286e-07	-5.14411e-09	-464058	-3.5021e-08
1	17	76.013	-0.0288391	-0.0287445	1.95923e-07	-5.63171e-09	-146713	-5.40912e-09
1	19	76.2145	-0.00869751	-0.00860596	3.59192e-07	-3.09119e-09	-23959.2	4.92814e-08
1	21	76.4159	0.0114441	0.0115265	6.35071e-07	7.32014e-09	18149.9	1.47844e-07
1	23	76.6173	0.0315857	0.0316711	1.02295e-06	3.2398e-08	30960.6	3.13729e-07
1	25	76.8187	0.0517273	0.0518188	1.43494e-06	7.43568e-08	36112.3	5.61934e-07
1	27	77.0201	0.0718689	0.0718079	1.72394e-06	1.23792e-07	41653.4	8.8247e-07
1	29	77.2215	0.0920105	0.0920715	1.80817e-06	1.66481e-07	50919.8	1.2407e-06
1	31	77.423	0.112152	0.112152	1.73981e-06	1.95123e-07	64462.375	1.5993e-06
1	33	77.6244	0.132294	0.132294	1.61377e-06	2.13492e-07	81978.1	1.9373e-06
1	35	77.8258	0.152435	0.152466	1.48834e-06	2.26921e-07	102440	2.2495e-06
1	37	78.0272	0.172577	0.172607	1.38062e-06	2.38304e-07	125022	2.53817e-06
1	39	78.2286	0.192719	0.192749	1.29425e-06	2.49466e-07	148927	2.80732e-06
1	41	78.43	0.21286	0.21286	1.22528e-06	2.60813e-07	173724	3.06081e-06
1	43	78.6315	0.233002	0.232971	1.17096e-06	2.728e-07	198958	3.30191e-06
1	45	78.8329	0.253143	0.253174	1.1264e-06	2.85176e-07	224763	3.53319e-06
1	47	79.0343	0.273285	0.273224	1.08856e-06	2.97421e-07	250995.25	3.75616e-06
1	49	79.2357	0.293427	0.293396	1.05682e-06	3.10068e-07	277621	3.97218e-06
1	51	79.4371	0.313568	0.313629	1.02966e-06	3.22932e-07	304594	4.18226e-06
1	53	79.6385	0.33371	0.333649	1.00464e-06	3.35196e-07	332108	4.3871e-06
1	55	79.84	0.353851	0.353821	9.82666e-07	3.47688e-07	360062.125	4.58724e-06
1	57	80.0414	0.373993	0.374023	9.64355e-07	3.60692e-07	387848.125	4.78329e-06
1	59	80.2428	0.394135	0.394104	9.49097e-07	3.74043e-07	415241	4.97593e-06
1	61	80.4442	0.414276	0.414276	9.34753e-07	3.87246e-07	443193	5.1656e-06
1	63	80.6456	0.434418	0.434418	9.23157e-07	4.01036e-07	470578.5	5.35268e-06
1	65	80.847	0.454559	0.454559	9.14001e-07	4.15468e-07	497329	5.53766e-06
1	67	81.0484	0.474701	0.47464	9.05457e-07	4.29766e-07	524200	5.72087e-06
1	69	81.2499	0.494843	0.494781	8.98132e-07	4.44379e-07	550900	5.90253e-06
1	71	81.4513	0.514984	0.514984	8.91418e-07	4.59066e-07	577713.125	6.08276e-06
1	73	81.6527	0.535126	0.535126	8.86841e-07	4.74571e-07	603406.75	6.2618e-06
1	75	81.8541	0.555267	0.555176	8.81653e-07	4.89472e-07	629698.875	6.43988e-06
1	77	82.0555	0.575409	0.575409	8.7738e-07	5.04852e-07	655826.125	6.617e-06
1	79	82.2569	0.595551	0.59549	8.74023e-07	5.20472e-07	681320	6.79333e-06
1	81	82.4584	0.615692	0.615601	8.71887e-07	5.36734e-07	706055	6.96911e-06
1	83	82.6598	0.635834	0.635803	8.70972e-07	5.53767e-07	729993	7.14459e-06
1	85	82.8612	0.655975	0.655975	8.70667e-07	5.71136e-07	753417	7.31994e-06
1	87	83.0626	0.676117	0.675995	8.71887e-07	5.89391e-07	775323.75	7.49543e-06
1	89	83.264	0.696259	0.696136	8.75244e-07	6.09289e-07	795363	7.67139e-06
1	91	83.4654	0.7164	0.716278	8.79211e-07	6.2976e-07	814682.375	7.8481e-06
1	93	83.6669	0.736542	0.736389	8.83789e-07	6.50813e-07	833218.25	8.02566e-06
1	95	83.8683	0.756683	0.756836	8.89893e-07	6.73503e-07	850480.125	8.20425e-06
1	97	84.0697	0.776825	0.776978	8.96301e-07	6.96406e-07	866871	8.38412e-06
1	99	84.2711	0.796967	0.797424	9.03015e-07	7.20086e-07	883068.625	8.5653e-06
1	101	84.4725	0.817108	0.817261	9.09729e-07	7.43486e-07	898356	8.74782e-06
1	103	84.6739	0.83725	0.837097	9.17664e-07	7.68174e-07	912204.875	8.93189e-06
1	105	84.8754	0.857391	0.857849	9.27124e-07	7.95333e-07	925280	9.11772e-06
1	107	85.0768	0.877533	0.87738	9.36279e-07	8.21473e-07	937092.625	9.30538e-06
1	109	85.2782	0.897675	0.897827	9.46655e-07	8.49933e-07	948420	9.495e-06
1	111	85.4796	0.917816	0.918274	9.57642e-07	8.79377e-07	958891	9.68678e-06
1	113	85.681	0.937958	0.93811	9.68628e-07	9.0868e-07	968494	9.88077e-06
1	115	85.8824	0.958099	0.957642	9.78699e-07	9.37243e-07	978485	1.00769e-05
1	117	86.0838	0.978241	0.978088	9.87854e-07	9.66208e-07	990114.375	1.02749e-05
1	119	86.2853	0.998383	0.998535	9.95789e-07	9.9433e-07	1.00276e+06	1.04747e-05
1	121	86.4867	1.01852	1.01837	1.00189e-06	1.0203e-06	1016448.375	1.06759e-05
1	123	86.6881	1.03867	1.03851	1.00586e-06	1.0446e-06	1.03246e+06	1.08782e-05
1	125	86.8895	1.05881	1.05804	1.00891e-06	1.06747e-06	1048699.375	1.10811e-05
1	127	87.0909	1.07895	1.07941	1.01166e-06	1.09199e-06	1066968.375	1.12845e-05
1	129	87.2923	1.09909	1.09894	1.01471e-06	1.1151e-06	1083007.5	1.14885e-05
1	131	87.4938	1.11923	1.11877	1.01807e-06	1.13899e-06	1098920.875	1.16933e-05
1	133	87.6952	1.13937	1.13983	1.02356e-06	1.16669e-06	1113595.75	1.18988e-05
1	135	87.8966	1.15952	1.15906	1.03088e-06	1.19485e-06	1124334	1.21057e-05
1	137	88.098	1.17966	1.1792	1.03973e-06	1.22605e-06	1134135.625	1.23143e-05
1	139	88.2994	1.1998	1.19965	1.04828e-06	1.25756e-06	1144395.875	1.25246e-05
1	141	88.5008	1.21994	1.21948	1.05743e-06	1.28952e-06	1153246.875	1.27366e-05
1	143	88.7023	1.24008	1.24023	1.06781e-06	1.32433e-06	1161474.75	1.29506e-05
1	145	88.9037	1.26022	1.26007	1.07697e-06	1.35705e-06	1170019.875	1.31666e-05
1	147	89.1051	1.28036	1.28021	1.08551e-06	1.38968e-06	1179364.625	1.33844e-05
1	149	89.3065	1.30051	1.30066	1.09467e-06	1.42379e-06	1188179.5	1.36039e-05
1	151	89.5079	1.32065	1.32019	1.10535e-06	1.45927e-06	1194367.75	1.38255e-05
1	153	89.7093	1.34079	1.34094	1.11633e-06	1.49694e-06	1201202.875	1.40492e-05
1	155	89.9108	1.36093	1.36108	1.12946e-06	1.53728e-06	1205079.75	1.42754e-05
1	157	90.1122	1.38107	1.38092	1.14288e-06	1.57823e-06	1208277.625	1.45041e-05
1	159	90.3136	1.40121	1.40137	1.15906e-06	1.62427e-06	1209057.5	1.4736e-05
1	161	90.515	1.42136	1.42151	1.17584e-06	1.67147e-06	1208928.125	1.49711e-05
1	163	90.7164	1.4415	1.44135	1.19324e-06	1.71987e-06	1207928.375	1.52097e-05
1	165	90.9178	1.46164	1.46118	1.21063e-06	1.76895e-06	1206957.5	1.54518e-05
1	167	91.1192	1.48178	1.48193	1.22803e-06	1.81985e-06	1206759.5	1.56975e-05
1	169	91.3207	1.50192	1.50146	1.2439e-06	1.86767e-06	1207065.75	1.59465e-05
1	171	91.5221	1.48178	1.48224	1.07819e-06	1.59813e-06	1374752.375	1.61787e-05
1	173	91.7235	1.46164	1.46149	9.84802e-07	1.43928e-06	1484040.875	1.63861e-05
1	175	91.9249	1.4415	1.44165	9.18274e-07	1.32383e-06	1569956.875	1.65774e-05
1	177	92.1263	1.42136	1.42059	8.65479e-07	1.22949e-06	1641396.375	1.6757e-05
1	179	92.3277	1.40121	1.40106	8.22144e-07	1.15187e-06	1704157.375	1.69268e-05
1	181	92.5292	1.38107	1.38092	7.86438e-07	1.08601e-06	1755917.75	1.70888e-05
1	183	92.7306	1.36093	1.36078	7.55005e-07	1.02739e-06	1802344.375	1.72439e-05
1	185	92.932	1.34079	1.34064	7.27539e-07	9.75366e-07	1842701.375	1.73932e-05
1	187	93.1334	1.32065	1.3208	7.01599e-07	9.26673e-07	1882557.625	1.75371e-05
1	189	93.3348	1.30051	1.30035	6.7749e-07	8.80977e-07	1919369.375	1.76759e-05
1	191	93.5362	1.28036	1.28021	6.54907e-07	8.3842e-07	1954799.75	1.78101e-05
1	193	93.7377	1.26022	1.26007	6.32935e-07	7.97542e-07	1990839.125	1.79398e-05
1	195	93.9391	1.24008	1.23993	6.10352e-07	7.56793e-07	2031500	1.8065e-05
1	197	94.1405	1.21994	1.21948	5.89294e-07	7.18634e-07	2069394.125	1.81858e-05
1	199	94.3419	1.1998	1.19965	5.69763e-07	6.83514e-07	2105516.75	1.83025e-05
1	201	94.5433	1.17966	1.1795	5.50842e-07	6.49721e-07	2141274.25	1.84153e-05
1	203	94.7447	1.15952	1.15906	5.32837e-07	6.17589e-07	2175257.75	1.85245e-05
1	205	94.9462	1.13937	1.13922	5.16052e-07	5.87898e-07	2207569.5	1.86301e-05
1	207	95.1476	1.11923	1.11938	5.00183e-07	5.59897e-07	2237950	1.87324e-05
1	209	95.349	1.09909	1.09924	4.84619e-07	5.32714e-07	2268262	1.88316e-05
1	211	95.5504	1.07895	1.0791	4.67834e-07	5.04841e-07	2306588.5	1.89275e-05
1	213	95.7518	1.05881	1.05865	4.49829e-07	4.76214e-07	2353460	1.90199e-05
1	215	95.9532	1.03867	1.03851	4.31824e-07	4.48455e-07	2404947	1.91087e-05
1	217	96.1546	1.01852	1.01837	4.13208e-07	4.20799e-07	2464549.5	1.91938e-05
1	219	96.3561	0.998383	0.998535	3.94897e-07	3.94319e-07	2528593.5	1.92752e-05
1	221	96.5575	0.978241	0.978699	3.76892e-07	3.68864e-07	2596761.25	1.93529e-05
1	223	96.7589	0.958099	0.957947	3.61633e-07	3.46425e-07	2648945.25	1.94273e-05
1	225	96.9603	0.937958	0.93811	3.4729e-07	3.25796e-07	2701230.25	1.94987e-05
1	227	97.1617	0.917816	0.917969	3.33252e-07	3.05915e-07	2754579	1.95672e-05
1	229	97.3631	0.897675	0.897217	3.21655e-07	2.88595e-07	2789373.75	1.96331e-05
1	231	97.5646	0.877533	0.877686	3.12195e-07	2.74009e-07	2811339.25	1.9697e-05
1	233	97.766	0.857391	0.857544	3.0426e-07	2.60917e-07	2818455.25	1.97591e-05
1	235	97.9674	0.83725	0.837402	2.96631e-07	2.48399e-07	2823045.5	1.98196e-05
1	237	98.1688	0.817108	0.817566	2.89307e-07	2.36527e-07	2825949.5	1.98786e-05
1	239	98.3702	0.796967	0.797424	2.83813e-07	2.2632e-07	2809677.5	1.99363e-05
1	241	98.5716	0.776825	0.776978	2.771e-07	2.153e-07	2803964.75	1.99928e-05
1	243	98.7731	0.756683	0.756531	2.71301e-07	2.05248e-07	2788526.5	2.0048e-05
1	245	98.9745	0.736542	0.736389	2.66113e-07	1.95963e-07	2767202	2.01021e-05
1	247	99.1759	0.7164	0.716309	2.61536e-07	1.8734e-07	2738856.5	2.01552e-05
1	249	99.3773	0.696259	0.696198	2.57568e-07	1.79318e-07	2702962	2.02075e-05
1	251	99.5787	0.676117	0.675995	2.53601e-07	1.71433e-07	2665583.75	2.0259e-05
1	253	99.7801	0.655975	0.655914	2.50549e-07	1.64339e-07	2617905	2.03098e-05
1	255	99.9816	0.635834	0.635803	2.48718e-07	1.58136e-07	2556319	2.036e-05
1	257	100.183	0.615692	0.615662	2.47192e-07	1.52187e-07	2490617.25	2.041e-05
1	259	100.384	0.595551	0.59552	2.45361e-07	1.46118e-07	2427114.5	2.04596e-05
1	261	100.586	0.575409	0.575348	2.42615e-07	1.39588e-07	2371446.75	2.05087e-05
1	263	100.787	0.555267	0.555237	2.40479e-07	1.33523e-07	2308883.5	2.05574e-05
1	265	100.989	0.535126	0.535126	2.37732e-07	1.27216e-07	2250962.75	2.06056e-05
1	267	101.19	0.514984	0.514893	2.3407e-07	1.20521e-07	2199739.25	2.06531e-05
1	269	101.391	0.494843	0.494781	2.30713e-07	1.14152e-07	2144576.75	2.06999e-05
1	271	101.593	0.474701	0.474548	2.27661e-07	1.08036e-07	2084450.375	2.0746e-05
1	273	101.794	0.454559	0.454529	2.23694e-07	1.01675e-07	2031923.625	2.07915e-05
1	275	101.996	0.434418	0.434357	2.19421e-07	9.53071e-08	1979555	2.08361e-05
1	277	102.197	0.414276	0.414246	2.16675e-07	8.97566e-08	1911831	2.088e-05
1	279	102.399	0.394135	0.394104	2.14844e-07	8.46708e-08	1834375	2.09234e-05
1	281	102.6	0.373993	0.373993	2.12402e-07	7.9437e-08	1760775.875	2.09665e-05
1	283	102.801	0.353851	0.353851	2.09961e-07	7.4295e-08	1685319.875	2.1009e-05
1	285	103.003	0.33371	0.333618	2.07214e-07	6.91305e-08	1610014.75	2.10511e-05
1	287	103.204	0.313568	0.313507	2.03552e-07	6.38151e-08	1540179.875	2.10925e-05
1	289	103.406	0.293427	0.293396	1.98059e-07	5.81097e-08	1481355.875	2.11329e-05
1	291	103.607	0.273285	0.273224	1.92261e-07	5.25302e-08	1421111.125	2.11723e-05
1	293	103.808	0.253143	0.253113	1.86157e-07	4.71188e-08	1359672.125	2.12103e-05
1	295	104.01	0.233002	0.233002	1.77612e-07	4.1384e-08	1311855.625	2.1247e-05
1	297	104.211	0.21286	0.21283	1.67542e-07	3.56578e-08	1270309.625	2.12818e-05
1	299	104.413	0.192719	0.192749	1.53809e-07	2.96465e-08	1253174.625	2.13142e-05
1	301	104.614	0.172577	0.172546	1.34583e-07	2.32217e-08	1282086.125	2.13433e-05
1	303	104.816	0.152435	0.152405	1.01318e-07	1.54414e-08	1504216.875	2.13674e-05
1	305	105.017	0.132294	0.132385	3.96729e-08	5.2521e-09	3336923	2.1382e-05
1	307	105.218	0.112152	0.112244	-7.65991e-08	-8.59777e-09	-1465338.625	2.13793e-05
1	309	105.42	0.0920105	0.0920715	-2.82898e-07	-2.60468e-08	-325458.5	2.13445e-05
1	311	105.621	0.0718689	0.0718689	-6.13708e-07	-4.41066e-08	-117106	2.12557e-05
1	313	105.823	0.0517273	0.0517883	-1.03638e-06	-5.36722e-08	-49970.6	2.10902e-05
1	315	106.024	0.0315857	0.0316589	-1.42578e-06	-4.51387e-08	-22204.625	2.08408e-05
1	317	106.225	0.0114441	0.0115051	-1.63849e-06	-1.8851e-08	-7021.79	2.05294e-05
1	319	106.427	-0.00869751	-0.00865173	-1.64642e-06	1.42444e-08	5254.87	2.01965e-05
1	321	106.628	-0.0288391	-0.0287384	-1.53931e-06	4.42372e-08	18669.7	1.98748e-05
1	323	106.83	-0.0489807	-0.0488586	-1.40259e-06	6.85285e-08	34834.6	1.95786e-05
1	325	107.031	-0.0691223	-0.0690918	-1.27869e-06	8.83467e-08	54033.4	1.93088e-05
1	327	107.233	-0.0892639	-0.0892334	-1.17889e-06	1.05197e-07	75692.5	1.90617e-05
1	329	107.434	-0.109406	-0.109344	-1.10046e-06	1.2033e-07	99362.2	1.88324e-05
1	331	107.635	-0.129547	-0.129456	-1.03943e-06	1.3456e-07	124545	1.86171e-05
1	333	107.837	-0.149689	-0.149567	-9.93958e-07	1.48663e-07	150476	1.84125e-05
1	335	108.038	-0.16983	-0.169739	-9.59167e-07	1.62808e-07	176965	1.82159e-05
1	337	108.24	-0.189972	-0.189819	-9.34448e-07	1.77376e-07	203135	1.80254e-05
1	339	108.441	-0.189972	-0.189789	-7.96204e-07	1.51111e-07	238367	1.78451e-05
2	341	108.642	-0.16983	-0.169678	-6.44226e-07	1.09311e-07	263382	1.7701e-05
2	343	108.844	-0.149689	-0.149506	-5.41382e-07	8.09396e-08	276156	1.7582e-05
2	345	109.045	-0.129547	-0.129456	-4.599e-07	5.95366e-08	281486	1.74813e-05
2	347	109.247	-0.109406	-0.109314	-3.9032e-07	4.26674e-08	280063	1.73958e-05
2	349	109.448	-0.0892639	-0.0891724	-3.26233e-07	2.9091e-08	273340	1.73237e-05
2	351	109.65	-0.0691223	-0.0690918	-2.59094e-07	1.79013e-08	266667	1.72647e-05
2	353	109.851	-0.0489807	-0.0488342	-1.77002e-07	8.64375e-09	275897	1.72205e-05
2	355	110.052	-0.0288391	-0.0287689	-5.52368e-08	1.5891e-09	520828.75	1.71964e-05
2	357	110.254	-0.00869751	-0.0085968	1.40991e-07	-1.21207e-09	-60974	1.72039e-05
2	359	110.455	0.0114441	0.0115417	4.50134e-07	5.19534e-09	25640.7	1.72618e-05
2	361	110.657	0.0315857	0.0316528	8.6731e-07	2.74528e-08	36495.4	1.73935e-05
2	363	110.858	0.0517273	0.0517273	1.29517e-06	6.69954e-08	39938.7	1.76121e-05
2	365	111.059	0.0718689	0.0718994	1.58112e-06	1.13681e-07	45473.8	1.79044e-05
2	367	111.261	0.0920105	0.092041	1.65924e-06	1.52718e-07	55471.8	1.82332e-05
2	369	111.462	0.112152	0.112213	1.59149e-06	1.78586e-07	70508.1	1.85618e-05
2	371	111.664	0.132294	0.132324	1.47247e-06	1.94844e-07	89865.3	1.88705e-05
2	373	111.865	0.152435	0.152466	1.35376e-06	2.06402e-07	112624	1.9155e-05
2	375	112.067	0.172577	0.172607	1.25519e-06	2.16655e-07	137515	1.94175e-05
2	377	112.268	0.192719	0.192688	1.17706e-06	2.26806e-07	163702.375	1.96622e-05
2	379	112.469	0.21286	0.212799	1.11481e-06	2.3723e-07	190884	1.98928e-05
2	381	112.671	0.233002	0.232971	1.06415e-06	2.47916e-07	218927	2.01122e-05
2	383	112.872	0.253143	0.253143	1.02234e-06	2.58798e-07	247612	2.03223e-05
2	385	113.074	0.273285	0.273285	9.8877e-07	2.70216e-07	276388.875	2.05248e-05
2	387	113.275	0.293427	0.293457	9.60693e-07	2.81922e-07	305464	2.07211e-05
2	389	113.476	0.313568	0.313568	9.36584e-07	2.93683e-07	334799.625	2.09121e-05
2	391	113.678	0.33371	0.333679	9.15833e-07	3.05594e-07	364345	2.10986e-05
2	393	113.879	0.353851	0.35379	8.99658e-07	3.1829e-07	393250	2.12814e-05
2	395	114.081	0.373993	0.373962	8.8562e-07	3.31189e-07	422261	2.14612e-05
2	397	114.282	0.394135	0.394073	8.74329e-07	3.4455e-07	450716	2.16384e-05
2	399	114.484	0.414276	0.414215	8.64258e-07	3.57989e-07	479273	2.18134e-05
2	401	114.685	0.434418	0.434418	8.56323e-07	3.72002e-07	507306	2.19867e-05
2	403	114.886	0.454559	0.45459	8.48694e-07	3.85808e-07	535635	2.21584e-05
2	405	115.088	0.474701	0.47467	8.41064e-07	3.99228e-07	564369	2.23285e-05
2	407	115.289	0.494843	0.494812	8.34045e-07	4.12696e-07	593267.5	2.24972e-05
2	409	115.491	0.514984	0.514954	8.28552e-07	4.26666e-07	621510.125	2.26646e-05
2	411	115.692	0.535126	0.535095	8.23975e-07	4.40905e-07	649407	2.2831e-05
2	413	115.893	0.555267	0.555298	8.20313e-07	4.55518e-07	676934.5	2.29966e-05
2	415	116.095	0.575409	0.575378	8.18481e-07	4.70937e-07	702982.875	2.31616e-05
2	417	116.296	0.595551	0.595551	8.18481e-07	4.87447e-07	727629	2.33264e-05
2	419	116.498	0.615692	0.615631	8.19092e-07	5.04258e-07	751602.125	2.34913e-05
2	421	116.699	0.635834	0.635712	8.20618e-07	5.21676e-07	774674.625	2.36564e-05
2	423	116.9	0.655975	0.655823	8.23364e-07	5.39981e-07	796516	2.3822e-05
2	425	117.102	0.676117	0.676056	8.27637e-07	5.59529e-07	816851	2.39882e-05
2	427	117.303	0.696259	0.696167	8.31299e-07	5.78723e-07	837445	2.41553e-05
2	429	117.505	0.7164	0.716309	8.35876e-07	5.98745e-07	856955.125	2.43232e-05
2	431	117.706	0.736542	0.73645	8.4137e-07	6.19627e-07	875299.25	2.44921e-05
2	433	117.908	0.756683	0.756531	8.48083e-07	6.41601e-07	892048	2.46622e-05
2	435	118.109	0.776825	0.776672	8.55103e-07	6.64135e-07	908280	2.48337e-05
2	437	118.31	0.796967	0.797119	8.63647e-07	6.8843e-07	922968.25	2.50068e-05
2	439	118.512	0.817108	0.81665	8.73718e-07	7.13522e-07	934684	2.51818e-05
2	441	118.713	0.83725	0.838013	8.8501e-07	7.41649e-07	946897	2.53589e-05
2	443	118.915	0.857391	0.857239	8.95996e-07	7.68083e-07	956743.875	2.55382e-05
2	445	119.116	0.877533	0.87738	9.07593e-07	7.96304e-07	966711.5	2.57198e-05
2	447	119.317	0.897675	0.897217	9.20105e-07	8.25534e-07	975124.375	2.59039e-05
2	449	119.519	0.917816	0.917969	9.32617e-07	8.56113e-07	984293	2.60905e-05
2	451	119.72	0.937958	0.9375	9.45129e-07	8.86059e-07	991928	2.62796e-05
2	453	119.922	0.958099	0.958252	9.56116e-07	9.162e-07	1002234.25	2.64711e-05
2	455	120.123	0.978241	0.978699	9.66797e-07	9.46203e-07	1012310.625	2.66648e-05
2	457	120.325	0.998383	0.99823	9.77478e-07	9.75748e-07	1.02123e+06	2.68606e-05
2	459	120.526	1.01852	1.01868	9.86023e-07	1.00444e-06	1033116.75	2.70584e-05
2	461	120.727	1.03867	1.0379	9.93347e-07	1.031e-06	1.04485e+06	2.72577e-05
2	463	120.929	1.05881	1.05835	9.99756e-07	1.05809e-06	1058608.125	2.74584e-05
2	465	121.13	1.07895	1.0788	1.00525e-06	1.08446e-06	1073163.375	2.76604e-05
2	467	121.332	1.09909	1.09924	1.0083e-06	1.10837e-06	1090193.75	2.78632e-05
2	469	121.533	1.11923	1.11908	1.01166e-06	1.13213e-06	1106184	2.80666e-05
2	471	121.734	1.13937	1.13922	1.0141e-06	1.15528e-06	1123382.5	2.82706e-05
2	473	121.936	1.15952	1.15967	1.01898e-06	1.18168e-06	1138065.25	2.84753e-05
2	475	122.137	1.17966	1.1792	1.02356e-06	1.20698e-06	1152057.25	2.8681e-05
2	477	122.339	1.1998	1.19995	1.02875e-06	1.23445e-06	1166419.5	2.88877e-05
2	479	122.54	1.21994	1.21979	1.03516e-06	1.26267e-06	1178360.875	2.90956e-05
2	481	122.742	1.24008	1.23993	1.04279e-06	1.29298e-06	1189054.75	2.93048e-05
2	483	122.943	1.26022	1.26007	1.05042e-06	1.3236e-06	1199593.25	2.95156e-05
2	485	123.144	1.28036	1.27991	1.05743e-06	1.35342e-06	1210389.625	2.97278e-05
2	487	123.346	1.30051	1.30066	1.06598e-06	1.38648e-06	1220154.625	2.99417e-05
2	489	123.547	1.32065	1.3208	1.07483e-06	1.41964e-06	1228847.25	3.01573e-05
2	491	123.749	1.34079	1.34064	1.08429e-06	1.45364e-06	1236419.875	3.03747e-05
2	493	123.95	1.36093	1.36108	1.09406e-06	1.4891e-06	1244072.5	3.05941e-05
2	495	124.151	1.38107	1.38092	1.10596e-06	1.52724e-06	1248620.25	3.08156e-05
2	497	124.353	1.40121	1.40106	1.12e-06	1.56918e-06	1250953.75	3.10397e-05
2	499	124.554	1.42136	1.4212	1.13434e-06	1.61213e-06	1252892.125	3.12667e-05
2	501	124.756	1.4415	1.44165	1.14929e-06	1.65688e-06	1254381.375	3.14967e-05
2	503	124.957	1.46164	1.4621	1.16547e-06	1.70402e-06	1254516.875	3.17299e-05
2	505	125.159	1.48178	1.48163	1.18103e-06	1.74985e-06	1254522	3.19662e-05
2	507	125.36	1.50192	1.50146	1.19659e-06	1.79664e-06	1254782	3.22057e-05
2	509	125.561	1.48178	1.48163	1.0321e-06	1.5292e-06	1435541.125	3.24285e-05
2	511	125.763	1.46164	1.46179	9.40552e-07	1.37489e-06	1554185.625	3.26267e-05
2	513	125.964	1.4415	1.44135	8.74023e-07	1.25977e-06	1649092.125	3.28092e-05
2	515	126.166	1.42136	1.4209	8.21533e-07	1.16732e-06	1729569.125	3.29798e-05
2	517	126.367	1.40121	1.40137	7.79114e-07	1.09182e-06	1798668.25	3.31409e-05
2	519	126.568	1.38107	1.38092	7.40662e-07	1.02279e-06	1864441.75	3.32938e-05
2	521	126.77	1.36093	1.36139	7.08313e-07	9.6429e-07	1922016.375	3.34397e-05
2	523	126.971	1.34079	1.34064	6.79016e-07	9.10314e-07	1974382.125	3.35794e-05
2	525	127.173	1.32065	1.32019	6.50635e-07	8.58962e-07	2029080.625	3.37133e-05
2	527	127.374	1.30051	1.30035	6.24084e-07	8.11531e-07	2083618.625	3.38416e-05
2	529	127.576	1.28036	1.28021	6.00281e-07	7.68487e-07	2132689.25	3.39649e-05
2	531	127.777	1.26022	1.25977	5.76172e-07	7.25842e-07	2186440.75	3.40834e-05
2	533	127.978	1.24008	1.23993	5.54504e-07	6.87546e-07	2236103.5	3.41972e-05
2	535	128.18	1.21994	1.21979	5.33447e-07	6.50692e-07	2286613.5	3.43068e-05
2	537	128.381	1.1998	1.19934	5.15137e-07	6.17824e-07	2328199	3.44123e-05
2	539	128.583	1.17966	1.1795	4.98047e-07	5.87448e-07	2368260	3.45143e-05
2	541	128.784	1.15952	1.15936	4.81567e-07	5.58311e-07	2407477.75	3.4613e-05
2	543	128.985	1.13937	1.13953	4.66003e-07	5.31023e-07	2445317.75	3.47084e-05
2	545	129.187	1.11923	1.11908	4.50439e-07	5.04078e-07	2484417.5	3.48007e-05
2	547	129.388	1.09909	1.09955	4.3396e-07	4.7716e-07	2533755.5	3.48898e-05
2	549	129.59	1.07895	1.0788	4.15039e-07	4.47743e-07	2599264.75	3.49753e-05
2	551	129.791	1.05881	1.05865	3.94897e-07	4.1806e-07	2680834.75	3.50569e-05
2	553	129.993	1.03867	1.03851	3.74756e-07	3.89189e-07	2771172.75	3.51344e-05
2	555	130.194	1.01852	1.01837	3.5553e-07	3.62061e-07	2864377.75	3.52079e-05
2	557	130.395	0.998383	0.998535	3.36914e-07	3.36421e-07	2963768.25	3.52775e-05
2	559	130.597	0.978241	0.978088	3.2135e-07	3.14309e-07	3043684.75	3.53438e-05
2	561	130.798	0.958099	0.957947	3.07922e-07	2.94973e-07	3111001	3.54071e-05
2	563	131	0.937958	0.93811	2.96631e-07	2.78272e-07	3162551.5	3.5468e-05
2	565	131.201	0.917816	0.917969	2.8595e-07	2.62493e-07	3210245.5	3.55267e-05
2	567	131.402	0.897675	0.897522	2.77405e-07	2.48977e-07	3235423.5	3.55834e-05
2	569	131.604	0.877533	0.877686	2.69165e-07	2.36242e-07	3260771	3.56384e-05
2	571	131.805	0.857391	0.857239	2.61841e-07	2.2446e-07	3273892.75	3.56919e-05
2	573	132.007	0.83725	0.837708	2.55432e-07	2.13977e-07	3279570	3.5744e-05
2	575	132.208	0.817108	0.817261	2.49023e-07	2.03517e-07	3281862.75	3.57948e-05
2	577	132.41	0.796967	0.796814	2.4353e-07	1.94048e-07	3271929.75	3.58444e-05
2	579	132.611	0.776825	0.776978	2.38647e-07	1.85424e-07	3255754.5	3.5893e-05
2	581	132.812	0.756683	0.757141	2.3468e-07	1.77686e-07	3226268	3.59406e-05
2	583	133.014	0.736542	0.736359	2.30408e-07	1.69663e-07	3195894.25	3.59875e-05
2	585	133.215	0.7164	0.716339	2.27966e-07	1.63301e-07	3142302.75	3.60336e-05
2	587	133.417	0.696259	0.696136	2.2583e-07	1.57209e-07	3082567.5	3.60794e-05
2	589	133.618	0.676117	0.675995	2.24609e-07	1.51835e-07	3009646.75	3.61247e-05
2	591	133.819	0.655975	0.655884	2.22778e-07	1.46117e-07	2944109.75	3.61697e-05
2	593	134.021	0.635834	0.635834	2.21252e-07	1.4068e-07	2873793.25	3.62144e-05
2	595	134.222	0.615692	0.615662	2.19421e-07	1.35089e-07	2805841.5	3.62588e-05
2	597	134.424	0.595551	0.59552	2.17896e-07	1.29761e-07	2733053.25	3.63029e-05
2	599	134.625	0.575409	0.575348	2.15149e-07	1.23785e-07	2674184.5	3.63464e-05
2	601	134.827	0.555267	0.555237	2.12097e-07	1.17764e-07	2617841.75	3.63895e-05
2	603	135.028	0.535126	0.535126	2.10266e-07	1.12519e-07	2544992.75	3.6432e-05
2	605	135.229	0.514984	0.515015	2.07214e-07	1.06718e-07	2485419.75	3.64741e-05
2	607	135.431	0.494843	0.494812	2.04773e-07	1.01324e-07	2416393.5	3.65156e-05
2	609	135.632	0.474701	0.474701	2.02332e-07	9.6047e-08	2346154	3.65565e-05
2	611	135.834	0.454559	0.454529	2.00195e-07	9.09945e-08	2270427	3.65971e-05
2	613	136.035	0.434418	0.434357	1.98364e-07	8.61608e-08	2189692.5	3.66373e-05
2	615	136.236	0.414276	0.414246	1.953125E-07	8.09073e-08	2120937.5	3.66769e-05
2	617	136.438	0.394135	0.394135	1.92871e-07	7.60172e-08	2043512.75	3.6716e-05
2	619	136.639	0.373993	0.373932	1.9043e-07	7.12077e-08	1963621.75	3.67546e-05
2	621	136.841	0.353851	0.353851	1.88293e-07	6.66279e-08	1879254.5	3.67928e-05
2	623	137.042	0.33371	0.33374	1.84021e-07	6.14152e-08	1813598.75	3.68303e-05
2	625	137.244	0.313568	0.313599	1.79749e-07	5.63689e-08	1744652	3.68669e-05
2	627	137.445	0.293427	0.293396	1.75171e-07	5.13944e-08	1674912.875	3.69027e-05
2	629	137.646	0.273285	0.273254	1.69067e-07	4.61984e-08	1616245.5	3.69374e-05
2	631	137.848	0.253143	0.253113	1.62354e-07	4.10938e-08	1559022.5	3.69708e-05
2	633	138.049	0.233002	0.232971	1.54419e-07	3.59752e-08	1508695.75	3.70027e-05
2	635	138.251	0.21286	0.212891	1.45264e-07	3.09253e-08	1465546.25	3.70329e-05
2	637	138.452	0.192719	0.192719	1.33362e-07	2.57013e-08	1445080.125	3.70611e-05
2	639	138.653	0.172577	0.172668	1.14136e-07	1.97076e-08	1512834.25	3.70862e-05
2	641	138.855	0.152435	0.152496	8.11768e-08	1.23792e-08	1878571.375	3.71061e-05
2	643	139.056	0.132294	0.132324	2.16675e-08	2.86713e-09	6107042.5	3.7117e-05
2	645	139.258	0.112152	0.112183	-9.12476e-08	-1.02364e-08	-1229431.5	3.71108e-05
2	647	139.459	0.0920105	0.092041	-2.948e-07	-2.71337e-08	-312215	3.70733e-05
2	649	139.661	0.0718689	0.0719604	-6.22559e-07	-4.47996e-08	-115588	3.69826e-05
2	651	139.862	0.0517273	0.0517883	-1.04706e-06	-5.42254e-08	-49460.8	3.68151e-05
2	653	140.063	0.0315857	0.0316284	-1.44714e-06	-4.57709e-08	-21855.8	3.65626e-05
2	655	140.265	0.0114441	0.0115662	-1.67511e-06	-1.93746e-08	-6904.72	3.62455e-05
2	657	140.466	-0.00869751	-0.00865479	-1.69403e-06	1.46615e-08	5108.99	3.59039e-05
2	659	140.668	-0.0288391	-0.0287262	-1.58813e-06	4.56211e-08	18088	3.55725e-05
2	661	140.869	-0.0489807	-0.0488312	-1.45081e-06	7.08445e-08	33658	3.52664e-05
2	663	141.07	-0.0691223	-0.0690918	-1.32538e-06	9.15728e-08	52129.9	3.49871e-05
2	665	141.272	-0.0892639	-0.0891724	-1.22437e-06	1.0918e-07	72831.5	3.47306e-05
2	667	141.473	-0.109406	-0.109344	-1.14594e-06	1.25302e-07	95419.4	3.44922e-05
2	669	141.675	-0.129547	-0.129486	-1.08521e-06	1.40519e-07	119319	3.42676e-05
2	671	141.876	-0.149689	-0.149628	-1.03973e-06	1.55573e-07	143910	3.40538e-05
2	673	142.077	-0.16983	-0.169678	-1.00677e-06	1.70827e-07	168536	3.38478e-05
2	675	142.279	-0.189972	-0.18985	-9.82361e-07	1.86501e-07	193259	3.36475e-05
2	677	142.48	-0.189972	-0.18988	-8.39844e-07	1.5947e-07	226090.125	3.34578e-05