File: Raw Electrochem Data/Oligomer 1/Blank electrolyte/DPV_Cathodic_Trace.txt
Potential - Start 1.505 V, Stop -0.205 V, Step -0.005 V; Modulation - Amplitude -0.05 V, Time 0.025 s, Interval time 0.05 s
Index	Base.Time (s)	Potential applied (V)	WE(1).Base.Potential (V)	WE(1).Base.Current (A)	WE(1).Pulse.Current (A)	WE(1).δ.Current (A)	WE(1).Base.Power (W)	WE(1).Base.Resistance (Ω)	WE(1).Base.Charge (C)
1	172.069	1.50497	1.50482	8.3252e-07	3.61023e-07	-4.71497e-07	1.25279e-06	1807551.375	0
2	172.119	1.49994	1.49994	9.64661e-07	3.93677e-07	-5.70984e-07	1.44693e-06	1554887.625	4.49295e-08
3	172.169	1.4949	1.49475	9.74731e-07	3.96423e-07	-5.78308e-07	1.45698e-06	1533500.375	9.34143e-08
4	172.219	1.48987	1.48987	9.72595e-07	3.93066e-07	-5.79529e-07	1.44904e-06	1531848.125	1.42097e-07
5	172.269	1.48483	1.48468	9.67102e-07	3.87878e-07	-5.79224e-07	1.43584e-06	1535184.75	1.9059e-07
6	172.319	1.4798	1.4798	9.60693e-07	3.80554e-07	-5.80139e-07	1.42163e-06	1540343.125	2.38785e-07
7	172.369	1.47476	1.47461	9.53674e-07	3.74146e-07	-5.79529e-07	1.4063e-06	1546240	2.86644e-07
8	172.419	1.46973	1.46973	9.46655e-07	3.67126e-07	-5.79529e-07	1.39132e-06	1552546.75	3.34152e-07
9	172.469	1.46469	1.46484	9.40247e-07	3.60107e-07	-5.80139e-07	1.37731e-06	1557935.75	3.81325e-07
10	172.519	1.45966	1.45966	9.32922e-07	3.53394e-07	-5.79529e-07	1.36175e-06	1564605.875	4.28154e-07
11	172.569	1.45462	1.45416	9.26819e-07	3.46069e-07	-5.8075e-07	1.34775e-06	1568982.625	4.74648e-07
12	172.619	1.44958	1.44928	9.20105e-07	3.39355e-07	-5.8075e-07	1.33349e-06	1575124.375	5.20821e-07
13	172.669	1.44455	1.44409	9.14307e-07	3.32642e-07	-5.81665e-07	1.32034e-06	1579439.25	5.66681e-07
14	172.719	1.43951	1.43921	9.08203e-07	3.26233e-07	-5.8197e-07	1.30709e-06	1584677.5	6.12244e-07
15	172.769	1.43448	1.43402	9.02405e-07	3.19214e-07	-5.83191e-07	1.29407e-06	1589110.625	6.57509e-07
16	172.819	1.42944	1.42944	8.96301e-07	3.125E-07	-5.83801e-07	1.28121e-06	1594824.75	7.02476e-07
17	172.869	1.42441	1.42426	8.91113e-07	3.06091e-07	-5.85022e-07	1.26917e-06	1598287.75	7.47162e-07
18	172.919	1.41937	1.41968	8.85315e-07	2.99072e-07	-5.86243e-07	1.25686e-06	1603585	7.91573e-07
19	172.969	1.41434	1.41479	8.80127e-07	2.92969e-07	-5.87158e-07	1.2452e-06	1607489.625	8.35709e-07
20	173.019	1.4093	1.4093	8.75244e-07	2.8656e-07	-5.88684e-07	1.23348e-06	1610181.375	8.79593e-07
21	173.069	1.40427	1.40472	8.70056e-07	2.79846e-07	-5.9021e-07	1.22219e-06	1614521.25	9.23225e-07
22	173.119	1.39923	1.39893	8.65479e-07	2.73132e-07	-5.92346e-07	1.21074e-06	1616361.125	9.66614e-07
23	173.169	1.3942	1.39496	8.60596e-07	2.66418e-07	-5.94177e-07	1.2005e-06	1620922.125	1.00977e-06
24	173.219	1.38916	1.38885	8.55713e-07	2.60315e-07	-5.95398e-07	1.18846e-06	1623038.5	1.05267e-06
25	173.269	1.38412	1.38397	8.5083e-07	2.53601e-07	-5.97229e-07	1.17753e-06	1626614.125	1.09534e-06
26	173.319	1.37909	1.37909	8.46252e-07	2.46582e-07	-5.9967e-07	1.16706e-06	1629643	1.13776e-06
27	173.369	1.37405	1.37421	8.4198e-07	2.40784e-07	-6.01196e-07	1.15705e-06	1632113.125	1.17997e-06
28	173.419	1.36902	1.36871	8.38013e-07	2.34375e-07	-6.03638e-07	1.147e-06	1633284.75	1.22197e-06
29	173.469	1.36398	1.36383	8.3374e-07	2.27661e-07	-6.06079e-07	1.13708e-06	1635798	1.26376e-06
30	173.519	1.35895	1.35864	8.29163e-07	2.21252e-07	-6.0791e-07	1.12654e-06	1638572	1.30534e-06
31	173.569	1.35391	1.35376	8.2489e-07	2.14844e-07	-6.10046e-07	1.1167e-06	1641139.5	1.34669e-06
32	173.619	1.34888	1.34918	8.21228e-07	2.08435e-07	-6.12793e-07	1.10799e-06	1642883.75	1.38784e-06
33	173.669	1.34384	1.34308	8.17261e-07	2.02026e-07	-6.15234e-07	1.09765e-06	1643390.625	1.4288e-06
34	173.719	1.33881	1.3385	8.12988e-07	1.953125E-07	-6.17676e-07	1.08819e-06	1646396.375	1.46956e-06
35	173.769	1.33377	1.33392	8.09021e-07	1.88904e-07	-6.20117e-07	1.07917e-06	1648811.75	1.51011e-06
36	173.819	1.32874	1.32843	8.05359e-07	1.8219e-07	-6.23169e-07	1.06986e-06	1649488.5	1.55047e-06
37	173.869	1.3237	1.32355	8.01086e-07	1.76086e-07	-6.25e-07	1.06028e-06	1652190.5	1.59063e-06
38	173.919	1.31866	1.31897	7.97119e-07	1.69067e-07	-6.28052e-07	1.05138e-06	1654670.75	1.63058e-06
39	173.969	1.31363	1.31378	7.93152e-07	1.62354e-07	-6.30798e-07	1.04203e-06	1656406.25	1.67034e-06
40	174.019	1.30859	1.30829	7.89185e-07	1.5686e-07	-6.32324e-07	1.03248e-06	1657772.75	1.7099e-06
41	174.069	1.30356	1.30341	7.85217e-07	1.49841e-07	-6.35376e-07	1.02346e-06	1659930.125	1.74926e-06
42	174.119	1.29852	1.29822	7.81555e-07	1.43433e-07	-6.38123e-07	1.01463e-06	1661069.875	1.78843e-06
43	174.169	1.29349	1.29364	7.77588e-07	1.37939e-07	-6.39648e-07	1.00592e-06	1663657.875	1.82741e-06
44	174.219	1.28845	1.28845	7.74231e-07	1.31531e-07	-6.427e-07	9.97559e-07	1664170.25	1.8662e-06
45	174.269	1.28342	1.28326	7.69958e-07	1.25427e-07	-6.44531e-07	9.8806e-07	1666666.625	1.90481e-06
46	174.319	1.27838	1.27838	7.67212e-07	1.19324e-07	-6.47888e-07	9.80789e-07	1666269	1.94324e-06
47	174.369	1.27335	1.2735	7.62634e-07	1.12915e-07	-6.49719e-07	9.71214e-07	1669868	1.98148e-06
48	174.419	1.26831	1.26831	7.58667e-07	1.07117e-07	-6.5155e-07	9.62225e-07	1671761.875	2.01952e-06
49	174.469	1.26328	1.26282	7.55005e-07	1.01318e-07	-6.53687e-07	9.53433e-07	1672595	2.05736e-06
50	174.519	1.25824	1.25824	7.51343e-07	9.552e-08	-6.55823e-07	9.45369e-07	1674654.75	2.09502e-06
51	174.569	1.2532	1.25305	7.47375e-07	9.00269e-08	-6.57349e-07	9.365e-07	1676602.75	2.13248e-06
52	174.619	1.24817	1.24817	7.44019e-07	8.48389e-08	-6.5918e-07	9.28661e-07	1677604.625	2.16977e-06
53	174.669	1.24313	1.24298	7.40967e-07	7.90405e-08	-6.61926e-07	9.21008e-07	1677512.5	2.20689e-06
54	174.719	1.2381	1.2381	7.37e-07	7.35474e-08	-6.63452e-07	9.12478e-07	1679917.25	2.24384e-06
55	174.769	1.23306	1.2326	7.33643e-07	6.7749e-08	-6.65894e-07	9.04291e-07	1680116.625	2.28061e-06
56	174.819	1.22803	1.22803	7.29065e-07	6.2561e-08	-6.66504e-07	8.95312e-07	1684386.75	2.31718e-06
57	174.869	1.22299	1.22314	7.25708e-07	5.7373e-08	-6.68335e-07	8.87646e-07	1685450	2.35355e-06
58	174.919	1.21796	1.21765	7.22351e-07	5.21851e-08	-6.70166e-07	8.79572e-07	1685678.125	2.38975e-06
59	174.969	1.21292	1.21246	7.19299e-07	4.66919e-08	-6.72607e-07	8.72124e-07	1685617.375	2.42579e-06
60	175.019	1.20789	1.20758	7.15942e-07	4.18091e-08	-6.74133e-07	8.64558e-07	1686700.875	2.46167e-06
61	175.069	1.20285	1.2027	7.1228e-07	3.60107e-08	-6.7627e-07	8.56658e-07	1688517.625	2.49738e-06
62	175.119	1.19781	1.19781	7.08923e-07	3.11279e-08	-6.77795e-07	8.49159e-07	1689625.5	2.53291e-06
63	175.169	1.19278	1.19263	7.05872e-07	2.56348e-08	-6.80237e-07	8.41841e-07	1689580.625	2.56828e-06
64	175.219	1.18774	1.18744	7.03125E-07	2.01416e-08	-6.82983e-07	8.34918e-07	1688802	2.6035e-06
65	175.269	1.18271	1.18286	6.99768e-07	1.43433e-08	-6.85425e-07	8.27729e-07	1690362	2.63857e-06
66	175.319	1.17767	1.17767	6.97021e-07	8.54492e-09	-6.88477e-07	8.20864e-07	1689579.75	2.67349e-06
67	175.369	1.17264	1.17249	6.94885e-07	2.74658e-09	-6.92139e-07	8.14743e-07	1687308	2.70829e-06
68	175.419	1.1676	1.1676	6.91833e-07	-3.35693e-09	-6.9519e-07	8.07787e-07	1687693.125	2.74296e-06
69	175.469	1.16257	1.16241	6.89087e-07	-9.15527e-09	-6.98242e-07	8.01005e-07	1686891.125	2.77748e-06
70	175.519	1.15753	1.15723	6.86646e-07	-1.52588e-08	-7.01904e-07	7.94604e-07	1685333.375	2.81187e-06
71	175.569	1.1525	1.15265	6.84204e-07	-2.2583e-08	-7.06787e-07	7.88647e-07	1684656.5	2.84615e-06
72	175.619	1.14746	1.14807	6.81763e-07	-2.92969e-08	-7.1106e-07	7.82712e-07	1683975	2.88029e-06
73	175.669	1.14243	1.14288	6.79321e-07	-3.60107e-08	-7.15332e-07	7.76385e-07	1682390	2.91432e-06
74	175.719	1.13739	1.13708	6.77185e-07	-4.30298e-08	-7.20215e-07	7.70017e-07	1679134.875	2.94823e-06
75	175.769	1.13235	1.1322	6.74744e-07	-5.0354e-08	-7.25098e-07	7.63946e-07	1677973.75	2.98203e-06
76	175.819	1.12732	1.12732	6.72913e-07	-5.82886e-08	-7.31201e-07	7.58587e-07	1675283.5	3.01572e-06
77	175.869	1.12228	1.12213	6.71082e-07	-6.53076e-08	-7.36389e-07	7.53042e-07	1672123.75	3.04932e-06
78	175.919	1.11725	1.11725	6.6925e-07	-7.35474e-08	-7.42798e-07	7.47719e-07	1669402.625	3.08283e-06
79	175.969	1.11221	1.11206	6.66504e-07	-8.11768e-08	-7.47681e-07	7.41193e-07	1668498.25	3.11623e-06
80	176.019	1.10718	1.10718	6.65283e-07	-8.91113e-08	-7.54395e-07	7.36587e-07	1664220.125	3.14952e-06
81	176.069	1.10214	1.10199	6.63147e-07	-9.73511e-08	-7.60498e-07	7.30781e-07	1661757.875	3.18273e-06
82	176.119	1.09711	1.09741	6.61621e-07	-1.05591e-07	-7.67212e-07	7.26071e-07	1658671.625	3.21585e-06
83	176.169	1.09207	1.09192	6.5918e-07	-1.13525e-07	-7.72705e-07	7.19771e-07	1656481.625	3.24887e-06
84	176.219	1.08704	1.08704	6.57349e-07	-1.2146e-07	-7.78809e-07	7.14562e-07	1653667.625	3.28178e-06
85	176.269	1.082	1.08215	6.55212e-07	-1.29395e-07	-7.84607e-07	7.0904e-07	1651607	3.3146e-06
86	176.319	1.07697	1.07666	6.53076e-07	-1.37024e-07	-7.901e-07	7.03141e-07	1648598.25	3.34731e-06
87	176.369	1.07193	1.07239	6.5155e-07	-1.44348e-07	-7.95898e-07	6.98715e-07	1645901.625	3.37992e-06
88	176.419	1.06689	1.06689	6.49109e-07	-1.51978e-07	-8.01086e-07	6.92531e-07	1643629.625	3.41244e-06
89	176.469	1.06186	1.0614	6.46362e-07	-1.59302e-07	-8.05664e-07	6.8605e-07	1642115.25	3.44482e-06
90	176.519	1.05682	1.05652	6.44531e-07	-1.66321e-07	-8.10852e-07	6.80959e-07	1639204.625	3.4771e-06
91	176.569	1.05179	1.05225	6.4209e-07	-1.73035e-07	-8.15125e-07	6.75637e-07	1638783.25	3.50926e-06
92	176.619	1.04675	1.04645	6.39343e-07	-1.79443e-07	-8.18787e-07	6.69039e-07	1636754.25	3.5413e-06
93	176.669	1.04172	1.04187	6.36597e-07	-1.86157e-07	-8.22754e-07	6.63251e-07	1636625.125	3.5732e-06
94	176.719	1.03668	1.03668	6.34155e-07	-1.92566e-07	-8.26721e-07	6.57417e-07	1634745	3.60497e-06
95	176.769	1.03165	1.03149	6.31409e-07	-1.98059e-07	-8.29468e-07	6.51294e-07	1633639.5	3.6366e-06
96	176.819	1.02661	1.02631	6.28662e-07	-2.02942e-07	-8.31604e-07	6.452e-07	1632524.25	3.66811e-06
97	176.869	1.02158	1.02112	6.25916e-07	-2.08435e-07	-8.34351e-07	6.39134e-07	1631399.375	3.69947e-06
98	176.919	1.01654	1.01593	6.23169e-07	-2.13623e-07	-8.36792e-07	6.33096e-07	1630264.5	3.7307e-06
99	176.969	1.01151	1.01166	6.20422e-07	-2.1759e-07	-8.38013e-07	6.27655e-07	1630595.25	3.76179e-06
100	177.019	1.00647	1.00647	6.17371e-07	-2.22473e-07	-8.39844e-07	6.21365e-07	1630252.125	3.79273e-06
101	177.069	1.00143	1.00159	6.14624e-07	-2.26135e-07	-8.40759e-07	6.15599e-07	1629592.875	3.82353e-06
102	177.119	0.996399	0.996399	6.11267e-07	-2.30408e-07	-8.41675e-07	6.09066e-07	1630055	3.85418e-06
103	177.169	0.991364	0.991516	6.08521e-07	-2.33459e-07	-8.4198e-07	6.03358e-07	1629388.125	3.88467e-06
104	177.219	0.986328	0.986023	6.05469e-07	-2.37427e-07	-8.42896e-07	5.97006e-07	1628528.25	3.91502e-06
105	177.269	0.981293	0.98114	6.02112e-07	-2.40479e-07	-8.4259e-07	5.90756e-07	1629498.25	3.94521e-06
106	177.319	0.976257	0.976868	5.98755e-07	-2.43225e-07	-8.4198e-07	5.84904e-07	1631498.5	3.97523e-06
107	177.369	0.971222	0.971069	5.96008e-07	-2.45361e-07	-8.4137e-07	5.78765e-07	1629288.25	4.0051e-06
108	177.419	0.966187	0.966187	5.92957e-07	-2.47803e-07	-8.40759e-07	5.72907e-07	1629439	4.03483e-06
109	177.469	0.961151	0.961304	5.89905e-07	-2.49634e-07	-8.39539e-07	5.67078e-07	1629591.375	4.0644e-06
110	177.519	0.956116	0.955811	5.86548e-07	-2.5177e-07	-8.38318e-07	5.60629e-07	1629552.5	4.09381e-06
111	177.569	0.95108	0.950928	5.83801e-07	-2.53601e-07	-8.37402e-07	5.55153e-07	1628855.25	4.12307e-06
112	177.619	0.946045	0.946045	5.80444e-07	-2.55127e-07	-8.35571e-07	5.49126e-07	1629863.375	4.15218e-06
113	177.669	0.94101	0.941162	5.77698e-07	-2.56348e-07	-8.34045e-07	5.43707e-07	1629160.125	4.18113e-06
114	177.719	0.935974	0.936279	5.74036e-07	-2.57263e-07	-8.31299e-07	5.37458e-07	1631047.25	4.20992e-06
115	177.769	0.930939	0.930786	5.71289e-07	-2.58179e-07	-8.29468e-07	5.31748e-07	1629273.625	4.23856e-06
116	177.819	0.925903	0.925293	5.67627e-07	-2.59399e-07	-8.27026e-07	5.25221e-07	1630107.5	4.26703e-06
117	177.869	0.920868	0.920715	5.64575e-07	-2.60315e-07	-8.2489e-07	5.19813e-07	1630810.75	4.29533e-06
118	177.919	0.915833	0.915833	5.60913e-07	-2.60925e-07	-8.21838e-07	5.13702e-07	1632753	4.32347e-06
119	177.969	0.910797	0.910645	5.58472e-07	-2.6123e-07	-8.19702e-07	5.08569e-07	1630601.25	4.35146e-06
120	178.019	0.905762	0.905762	5.55115e-07	-2.62146e-07	-8.17261e-07	5.02802e-07	1631665.75	4.3793e-06
121	178.069	0.900726	0.900574	5.52368e-07	-2.62756e-07	-8.15125e-07	4.97448e-07	1630386.875	4.40698e-06
122	178.119	0.895691	0.896301	5.49011e-07	-2.62756e-07	-8.11768e-07	4.92079e-07	1632573.75	4.43452e-06
123	178.169	0.890656	0.890808	5.45959e-07	-2.62756e-07	-8.08716e-07	4.86345e-07	1631637.875	4.46189e-06
124	178.219	0.88562	0.885925	5.42603e-07	-2.63367e-07	-8.05969e-07	4.80705e-07	1632733.375	4.48911e-06
125	178.269	0.880585	0.880737	5.39856e-07	-2.63367e-07	-8.03223e-07	4.75471e-07	1631430.25	4.51617e-06
126	178.319	0.875549	0.875549	5.36804e-07	-2.62756e-07	-7.99561e-07	4.69999e-07	1631040.375	4.54308e-06
127	178.369	0.870514	0.870667	5.33752e-07	-2.62756e-07	-7.96509e-07	4.6472e-07	1631217.875	4.56985e-06
128	178.419	0.865479	0.865784	5.31311e-07	-2.62451e-07	-7.93762e-07	4.6e-07	1629523.375	4.59647e-06
129	178.469	0.860443	0.860901	5.28259e-07	-2.62451e-07	-7.9071e-07	4.54779e-07	1629693.875	4.62296e-06
130	178.519	0.855408	0.855408	5.25208e-07	-2.61536e-07	-7.86743e-07	4.49267e-07	1628704.25	4.6493e-06
131	178.569	0.850372	0.850525	5.22766e-07	-2.6123e-07	-7.83997e-07	4.44626e-07	1626970.375	4.6755e-06
132	178.619	0.845337	0.845337	5.2002e-07	-2.6062e-07	-7.8064e-07	4.39592e-07	1625586.875	4.70157e-06
133	178.669	0.840302	0.840149	5.17578e-07	-2.60315e-07	-7.77893e-07	4.34843e-07	1623231.25	4.72751e-06
134	178.719	0.835266	0.835266	5.14526e-07	-2.59399e-07	-7.73926e-07	4.29766e-07	1623369	4.75331e-06
135	178.769	0.830231	0.830383	5.1239e-07	-2.59094e-07	-7.71484e-07	4.2548e-07	1620607.625	4.77898e-06
136	178.819	0.825195	0.82489	5.09644e-07	-2.58484e-07	-7.68127e-07	4.204e-07	1618562.875	4.80453e-06
137	178.869	0.82016	0.8203125	5.06897e-07	-2.56958e-07	-7.63855e-07	4.15814e-07	1618302.25	4.82995e-06
138	178.919	0.815125	0.81543	5.04456e-07	-2.55737e-07	-7.60193e-07	4.11348e-07	1616455	4.85523e-06
139	178.969	0.810089	0.810547	5.02014e-07	-2.55432e-07	-7.57446e-07	4.06906e-07	1614589.75	4.88039e-06
140	179.019	0.805054	0.804749	4.99573e-07	-2.54211e-07	-7.53784e-07	4.0203e-07	1610873.5	4.90543e-06
141	179.069	0.800018	0.800171	4.97742e-07	-2.53906e-07	-7.51648e-07	3.98278e-07	1607602.75	4.93037e-06
142	179.119	0.794983	0.794373	4.94385e-07	-2.53296e-07	-7.47681e-07	3.92726e-07	1606790.125	4.95517e-06
143	179.169	0.789948	0.7901	4.91333e-07	-2.52686e-07	-7.44019e-07	3.88202e-07	1608074.625	4.97981e-06
144	179.219	0.784912	0.784607	4.89197e-07	-2.5177e-07	-7.40967e-07	3.83827e-07	1603867.75	5.00433e-06
145	179.269	0.779877	0.779724	4.8645e-07	-2.50549e-07	-7.37e-07	3.79297e-07	1602885.875	5.02872e-06
146	179.319	0.774841	0.774536	4.84314e-07	-2.49023e-07	-7.33337e-07	3.75119e-07	1599243.875	5.05299e-06
147	179.369	0.769806	0.769958	4.82483e-07	-2.48413e-07	-7.30896e-07	3.71492e-07	1595825.5	5.07716e-06
148	179.419	0.764771	0.765076	4.80347e-07	-2.47192e-07	-7.27539e-07	3.67502e-07	1592757.375	5.10123e-06
149	179.469	0.759735	0.759888	4.7821e-07	-2.45667e-07	-7.23877e-07	3.63386e-07	1589023.625	5.12519e-06
150	179.519	0.7547	0.7547	4.76074e-07	-2.44446e-07	-7.2052e-07	3.59293e-07	1585256.5	5.14905e-06
151	179.569	0.749664	0.749634	4.74243e-07	-2.4353e-07	-7.17773e-07	3.55509e-07	1580695	5.17281e-06
152	179.619	0.744629	0.744568	4.71497e-07	-2.4231e-07	-7.13806e-07	3.51061e-07	1579158.625	5.19645e-06
153	179.669	0.739594	0.739532	4.69666e-07	-2.40784e-07	-7.10449e-07	3.47333e-07	1574594	5.21998e-06
154	179.719	0.734558	0.734406	4.67529e-07	-2.39563e-07	-7.07092e-07	3.43356e-07	1570822.5	5.24341e-06
155	179.769	0.729523	0.72937	4.66003e-07	-2.38342e-07	-7.04346e-07	3.39889e-07	1565160.5	5.26675e-06
156	179.819	0.724487	0.724365	4.64478e-07	-2.37427e-07	-7.01904e-07	3.36451e-07	1559527	5.29001e-06
157	179.869	0.719452	0.71936	4.62646e-07	-2.36206e-07	-6.98853e-07	3.3281e-07	1554881.25	5.31319e-06
158	179.919	0.714417	0.714325	4.60815e-07	-2.35291e-07	-6.96106e-07	3.29172e-07	1550132.5	5.33627e-06
159	179.969	0.709381	0.70929	4.58679e-07	-2.3468e-07	-6.93359e-07	3.25336e-07	1546374	5.35926e-06
160	180.019	0.704346	0.704285	4.57458e-07	-2.33154e-07	-6.90613e-07	3.22181e-07	1539559.75	5.38216e-06
161	180.069	0.69931	0.699188	4.55933e-07	-2.32239e-07	-6.88171e-07	3.18783e-07	1533534.25	5.405e-06
162	180.119	0.694275	0.694153	4.54712e-07	-2.31018e-07	-6.8573e-07	3.1564e-07	1526577.25	5.42776e-06
163	180.169	0.68924	0.689178	4.53186e-07	-2.30713e-07	-6.83899e-07	3.12326e-07	1520740.75	5.45046e-06
164	180.219	0.684204	0.684174	4.5166e-07	-2.29797e-07	-6.81458e-07	3.09014e-07	1514797.25	5.47308e-06
165	180.269	0.679169	0.679169	4.50439e-07	-2.29187e-07	-6.79626e-07	3.05924e-07	1507791.375	5.49564e-06
166	180.319	0.674133	0.674042	4.48914e-07	-2.27661e-07	-6.76575e-07	3.02586e-07	1501495.625	5.51812e-06
167	180.369	0.669098	0.668945	4.48303e-07	-2.27661e-07	-6.75964e-07	2.9989e-07	1492171.625	5.54055e-06
168	180.419	0.6640625	0.66391	4.46777e-07	-2.26746e-07	-6.73523e-07	2.9662e-07	1485997.25	5.56293e-06
169	180.469	0.659027	0.658966	4.45862e-07	-2.26135e-07	-6.71997e-07	2.93808e-07	1477960.25	5.58524e-06
170	180.519	0.653992	0.65387	4.44946e-07	-2.25525e-07	-6.70471e-07	2.90937e-07	1469547.375	5.60751e-06
171	180.569	0.648956	0.648834	4.44031e-07	-2.24915e-07	-6.68945e-07	2.88102e-07	1461237.125	5.62974e-06
172	180.619	0.643921	0.643829	4.43115e-07	-2.24915e-07	-6.6803e-07	2.85291e-07	1452961.5	5.65192e-06
173	180.669	0.638885	0.638855	4.41895e-07	-2.24609e-07	-6.66504e-07	2.82307e-07	1445718.25	5.67404e-06
174	180.719	0.63385	0.633789	4.40979e-07	-2.24304e-07	-6.65283e-07	2.79488e-07	1437231.875	5.69611e-06
175	180.769	0.628815	0.628754	4.40369e-07	-2.24304e-07	-6.64673e-07	2.76883e-07	1427789.375	5.71815e-06
176	180.819	0.623779	0.623749	4.39453e-07	-2.24304e-07	-6.63757e-07	2.74108e-07	1419375	5.74014e-06
177	180.869	0.618744	0.618713	4.38538e-07	-2.23999e-07	-6.62537e-07	2.71329e-07	1410856	5.76209e-06
178	180.919	0.613708	0.613647	4.37927e-07	-2.23999e-07	-6.61926e-07	2.68733e-07	1401254.375	5.784e-06
179	180.969	0.608673	0.608643	4.37317e-07	-2.23694e-07	-6.61011e-07	2.6617e-07	1391765.5	5.80588e-06
180	181.019	0.603638	0.603577	4.37317e-07	-2.23999e-07	-6.61316e-07	2.63954e-07	1380181.5	5.82775e-06
181	181.069	0.598602	0.598633	4.36401e-07	-2.24609e-07	-6.61011e-07	2.61244e-07	1371748.25	5.84959e-06
182	181.119	0.593567	0.593536	4.35791e-07	-2.24304e-07	-6.60095e-07	2.58658e-07	1361974.75	5.8714e-06
183	181.169	0.588531	0.588501	4.35791e-07	-2.24609e-07	-6.604e-07	2.56463e-07	1350420.25	5.89319e-06
184	181.219	0.583496	0.583435	4.3457e-07	-2.24915e-07	-6.59485e-07	2.53544e-07	1342556.25	5.91495e-06
185	181.269	0.578461	0.57843	4.34265e-07	-2.2522e-07	-6.59485e-07	2.51192e-07	1331974.75	5.93667e-06
186	181.319	0.573425	0.573395	4.34265e-07	-2.25525e-07	-6.5979e-07	2.49005e-07	1320379.5	5.95838e-06
187	181.369	0.56839	0.568359	4.33655e-07	-2.2583e-07	-6.59485e-07	2.46472e-07	1310626.375	5.98008e-06
188	181.419	0.563354	0.563324	4.33655e-07	-2.26746e-07	-6.604e-07	2.44288e-07	1299014.75	6.00176e-06
189	181.469	0.558319	0.558289	4.3335e-07	-2.27051e-07	-6.604e-07	2.41934e-07	1288309.875	6.02344e-06
190	181.519	0.553284	0.553314	4.3335e-07	-2.27661e-07	-6.61011e-07	2.39779e-07	1276831	6.0451e-06
191	181.569	0.548248	0.548157	4.32739e-07	-2.28271e-07	-6.61011e-07	2.37209e-07	1266713.625	6.06676e-06
192	181.619	0.543213	0.543182	4.32129e-07	-2.29492e-07	-6.61621e-07	2.34725e-07	1256991.5	6.08838e-06
193	181.669	0.538177	0.538147	4.32434e-07	-2.29797e-07	-6.62231e-07	2.32713e-07	1244460.125	6.10999e-06
194	181.719	0.533142	0.533112	4.32434e-07	-2.31018e-07	-6.63452e-07	2.30536e-07	1232815.875	6.13161e-06
195	181.769	0.528107	0.528046	4.31824e-07	-2.31628e-07	-6.63452e-07	2.28023e-07	1222826.875	6.15322e-06
196	181.819	0.523071	0.523041	4.31824e-07	-2.32849e-07	-6.64673e-07	2.25861e-07	1211236.875	6.17481e-06
197	181.869	0.518036	0.518066	4.32129e-07	-2.33765e-07	-6.65894e-07	2.23871e-07	1198870.125	6.19641e-06
198	181.919	0.513	0.513	4.32129e-07	-2.34985e-07	-6.67114e-07	2.21682e-07	1187146.875	6.21802e-06
199	181.969	0.507965	0.507965	4.32434e-07	-2.36206e-07	-6.6864e-07	2.19661e-07	1174664.875	6.23963e-06
200	182.019	0.50293	0.502899	4.32129e-07	-2.38342e-07	-6.70471e-07	2.17317e-07	1163771.25	6.26125e-06
201	182.069	0.497894	0.497925	4.31824e-07	-2.39563e-07	-6.71387e-07	2.15016e-07	1153074.25	6.28284e-06
202	182.119	0.492859	0.492859	4.32129e-07	-2.41394e-07	-6.73523e-07	2.12979e-07	1140536.75	6.30444e-06
203	182.169	0.487823	0.487854	4.32434e-07	-2.43225e-07	-6.75659e-07	2.10965e-07	1128158.125	6.32606e-06
204	182.219	0.482788	0.482758	4.32739e-07	-2.45361e-07	-6.78101e-07	2.08908e-07	1115585.375	6.34769e-06
205	182.269	0.477753	0.477753	4.3335e-07	-2.47498e-07	-6.80847e-07	2.07034e-07	1102464.75	6.36934e-06
206	182.319	0.472717	0.472687	4.33044e-07	-2.49634e-07	-6.82678e-07	2.04694e-07	1091543.375	6.391e-06
207	182.369	0.467682	0.467621	4.3396e-07	-2.5116e-07	-6.8512e-07	2.02929e-07	1077566.875	6.41267e-06
208	182.419	0.462646	0.462616	4.3396e-07	-2.53601e-07	-6.87561e-07	2.00757e-07	1066033.75	6.43437e-06
209	182.469	0.457611	0.457611	4.3396e-07	-2.55127e-07	-6.89087e-07	1.98585e-07	1054500.75	6.45607e-06
210	182.519	0.452576	0.452545	4.3457e-07	-2.56348e-07	-6.90918e-07	1.96663e-07	1041362.375	6.47778e-06
211	182.569	0.44754	0.44754	4.34265e-07	-2.57874e-07	-6.92139e-07	1.94351e-07	1030569.25	6.4995e-06
212	182.619	0.442505	0.442474	4.3457e-07	-2.6001e-07	-6.9458e-07	1.92286e-07	1018188.25	6.52122e-06
213	182.669	0.437469	0.437439	4.3457e-07	-2.61536e-07	-6.96106e-07	1.90098e-07	1.0066e+06	6.54295e-06
214	182.719	0.432434	0.432373	4.34265e-07	-2.62451e-07	-6.96716e-07	1.87765e-07	995643	6.56467e-06
215	182.769	0.427399	0.427338	4.34265e-07	-2.63672e-07	-6.97937e-07	1.85578e-07	984048	6.58639e-06
216	182.819	0.422363	0.422302	4.3396e-07	-2.65198e-07	-6.99158e-07	1.83262e-07	973136.5	6.60809e-06
217	182.869	0.417328	0.417297	4.33655e-07	-2.66724e-07	-7.00378e-07	1.80963e-07	962280.125	6.62978e-06
218	182.919	0.412292	0.412354	4.32739e-07	-2.67944e-07	-7.00684e-07	1.78442e-07	952891.375	6.65144e-06
219	182.969	0.407257	0.407288	4.33044e-07	-2.69165e-07	-7.02209e-07	1.76374e-07	940521.5	6.67309e-06
220	183.019	0.402222	0.402222	4.32434e-07	-2.70996e-07	-7.0343e-07	1.73934e-07	930134.125	6.69473e-06
221	183.069	0.397186	0.397217	4.32739e-07	-2.71912e-07	-7.04651e-07	1.71891e-07	917913	6.71635e-06
222	183.119	0.392151	0.39212	4.33044e-07	-2.73743e-07	-7.06787e-07	1.69806e-07	905496.875	6.738e-06
223	183.169	0.387115	0.387115	4.32434e-07	-2.75574e-07	-7.08008e-07	1.67402e-07	895201	6.75964e-06
224	183.219	0.38208	0.38205	4.32434e-07	-2.78015e-07	-7.10449e-07	1.65211e-07	883486.25	6.78126e-06
225	183.269	0.377045	0.377045	4.32434e-07	-2.79541e-07	-7.11975e-07	1.63047e-07	871912.5	6.80288e-06
226	183.319	0.372009	0.371979	4.33655e-07	-2.81677e-07	-7.15332e-07	1.6131e-07	857776.25	6.82453e-06
227	183.369	0.366974	0.366974	4.33655e-07	-2.83508e-07	-7.17163e-07	1.5914e-07	846235	6.84621e-06
228	183.419	0.361938	0.361969	4.34265e-07	-2.86865e-07	-7.2113e-07	1.57191e-07	833520.75	6.86791e-06
229	183.469	0.356903	0.356903	4.3457e-07	-2.89307e-07	-7.23877e-07	1.55099e-07	821278.125	6.88963e-06
230	183.519	0.351868	0.351898	4.35181e-07	-2.92053e-07	-7.27234e-07	1.53139e-07	808626	6.91138e-06
231	183.569	0.346832	0.346893	4.35486e-07	-2.94495e-07	-7.2998e-07	1.51067e-07	796566.25	6.93314e-06
232	183.619	0.341797	0.341797	4.36401e-07	-2.97852e-07	-7.34253e-07	1.49161e-07	783217	6.95494e-06
233	183.669	0.336761	0.336731	4.37012e-07	-3.00903e-07	-7.37915e-07	1.47155e-07	770530.75	6.97678e-06
234	183.719	0.331726	0.331726	4.37012e-07	-3.0426e-07	-7.41272e-07	1.44968e-07	759078	6.99863e-06
235	183.769	0.326691	0.326721	4.38232e-07	-3.07312e-07	-7.45544e-07	1.4318e-07	745543	7.02051e-06
236	183.819	0.321655	0.321655	4.39148e-07	-3.11584e-07	-7.50732e-07	1.41254e-07	732453.125	7.04244e-06
237	183.869	0.31662	0.31665	4.39758e-07	-3.15857e-07	-7.55615e-07	1.3925e-07	720056	7.06441e-06
238	183.919	0.311584	0.311584	4.40674e-07	-3.19519e-07	-7.60193e-07	1.37307e-07	707064	7.08643e-06
239	183.969	0.306549	0.306519	4.41589e-07	-3.23792e-07	-7.65381e-07	1.35355e-07	694126	7.10848e-06
240	184.019	0.301514	0.301483	4.43115e-07	-3.28064e-07	-7.71179e-07	1.33592e-07	680372	7.1306e-06
241	184.069	0.296478	0.296417	4.44031e-07	-3.33862e-07	-7.77893e-07	1.31618e-07	667560	7.15278e-06
242	184.119	0.291443	0.291443	4.44641e-07	-3.38135e-07	-7.82776e-07	1.29587e-07	655456	7.175e-06
243	184.169	0.286407	0.286499	4.46167e-07	-3.43628e-07	-7.89795e-07	1.27826e-07	642134	7.19727e-06
244	184.219	0.281372	0.281403	4.47388e-07	-3.50037e-07	-7.97424e-07	1.25896e-07	628990	7.2196e-06
245	184.269	0.276337	0.276306	4.48608e-07	-3.5553e-07	-8.04138e-07	1.23953e-07	615918.375	7.242e-06
246	184.319	0.271301	0.27124	4.49829e-07	-3.61938e-07	-8.11768e-07	1.22012e-07	602985	7.26447e-06
247	184.369	0.266266	0.266205	4.5105e-07	-3.68652e-07	-8.19702e-07	1.20072e-07	590189	7.28699e-06
248	184.419	0.26123	0.2612	4.52576e-07	-3.75671e-07	-8.28247e-07	1.18213e-07	577141	7.30958e-06
249	184.469	0.256195	0.256195	4.55017e-07	-3.83606e-07	-8.38623e-07	1.16573e-07	563045	7.33227e-06
250	184.519	0.25116	0.25116	4.56848e-07	-3.92151e-07	-8.48999e-07	1.14742e-07	549766	7.35506e-06
251	184.569	0.246124	0.246094	4.5929e-07	-4.01611e-07	-8.60901e-07	1.13028e-07	535814	7.37797e-06
252	184.619	0.241089	0.241058	4.61731e-07	-4.12292e-07	-8.74023e-07	1.11304e-07	522075.375	7.40099e-06
253	184.669	0.236053	0.235992	4.64478e-07	-4.23889e-07	-8.88367e-07	1.09613e-07	508081.5	7.42415e-06
254	184.719	0.231018	0.230988	4.66919e-07	-4.37317e-07	-9.04236e-07	1.07852e-07	494706	7.44743e-06
255	184.769	0.225983	0.225983	4.71191e-07	-4.51965e-07	-9.23157e-07	1.06481e-07	479598	7.47089e-06
256	184.819	0.220947	0.220947	4.75159e-07	-4.6936e-07	-9.44519e-07	1.04985e-07	464997	7.49454e-06
257	184.869	0.215912	0.215912	4.80042e-07	-4.89502e-07	-9.69543e-07	1.03647e-07	449778	7.51842e-06
258	184.919	0.210876	0.210907	4.8584e-07	-5.12085e-07	-9.97925e-07	1.02467e-07	434108	7.54257e-06
259	184.969	0.205841	0.205872	4.92554e-07	-5.38635e-07	-1.03119e-06	1.01403e-07	417968	7.56703e-06
260	185.019	0.200806	0.200836	5.00793e-07	-5.69458e-07	-1.07025e-06	1.00577e-07	401036	7.59187e-06
261	185.069	0.19577	0.195831	5.10559e-07	-6.04858e-07	-1.11542e-06	9.99834e-08	383562	7.61715e-06
262	185.119	0.190735	0.190826	5.21545e-07	-6.46667e-07	-1.16821e-06	9.95246e-08	365886	7.64295e-06
263	185.169	0.185699	0.185699	5.34668e-07	-6.9519e-07	-1.22986e-06	9.92876e-08	347317.375	7.66936e-06
264	185.219	0.180664	0.180634	5.50842e-07	-7.52258e-07	-1.3031e-06	9.95006e-08	327922	7.6965e-06
265	185.269	0.175629	0.175598	5.69763e-07	-8.1665e-07	-1.38641e-06	1.00049e-07	308195	7.72451e-06
266	185.319	0.170593	0.170563	5.92041e-07	-8.9386e-07	-1.4859e-06	1.0098e-07	288093	7.75356e-06
267	185.369	0.165558	0.165558	6.17676e-07	-9.8175e-07	-1.59943e-06	1.02261e-07	268034	7.7838e-06
268	185.419	0.160522	0.160553	6.46973e-07	-1.08368e-06	-1.73065e-06	1.03873e-07	248160	7.81541e-06
269	185.469	0.155487	0.155487	6.82068e-07	-1.19934e-06	-1.88141e-06	1.06053e-07	227964	7.84864e-06
270	185.519	0.150452	0.150452	7.2113e-07	-1.33057e-06	-2.0517e-06	1.08495e-07	208633	7.88372e-06
271	185.569	0.145416	0.145447	7.66296e-07	-1.47858e-06	-2.24487e-06	1.11455e-07	189805	7.92091e-06
272	185.619	0.140381	0.140411	8.1665e-07	-1.64337e-06	-2.46002e-06	1.14667e-07	171936	7.96048e-06
273	185.669	0.135345	0.135406	8.73108e-07	-1.82495e-06	-2.69806e-06	1.18224e-07	155086	8.00272e-06
274	185.719	0.13031	0.130341	9.33533e-07	-2.02362e-06	-2.95715e-06	1.21677e-07	139621	8.04789e-06
275	185.769	0.125275	0.125336	9.99756e-07	-2.23755e-06	-3.2373e-06	1.25305e-07	125366	8.09622e-06
276	185.819	0.120239	0.12027	1.06873e-06	-2.4646e-06	-3.53333e-06	1.28535e-07	112536	8.14793e-06
277	185.869	0.115204	0.115204	1.13861e-06	-2.70111e-06	-3.83972e-06	1.31172e-07	101179	8.20312e-06
278	185.919	0.110168	0.110199	1.20789e-06	-2.94647e-06	-4.15436e-06	1.33108e-07	91232.9	8.26178e-06
279	185.969	0.105133	0.105103	1.27411e-06	-3.1958e-06	-4.46991e-06	1.33912e-07	82491	8.32383e-06
280	186.019	0.100098	0.100098	1.33362e-06	-3.4433e-06	-4.77692e-06	1.33492e-07	75057.2	8.38902e-06
281	186.069	0.0950623	0.0950928	1.38275e-06	-3.68042e-06	-5.06317e-06	1.3149e-07	68770.7	8.45693e-06
282	186.119	0.0900269	0.0900269	1.42334e-06	-3.9093e-06	-5.33264e-06	1.28139e-07	63250.4	8.52708e-06
283	186.169	0.0849915	0.0849609	1.44409e-06	-4.12231e-06	-5.56641e-06	1.22691e-07	58833.5	8.59877e-06
284	186.219	0.0799561	0.0800476	1.44592e-06	-4.31213e-06	-5.75806e-06	1.15743e-07	55360.9	8.67102e-06
285	186.269	0.0749207	0.0749207	1.4267e-06	-4.47388e-06	-5.90057e-06	1.06889e-07	52513.4	8.74284e-06
286	186.319	0.0698853	0.0698853	1.38702e-06	-4.6051e-06	-5.99213e-06	9.69325e-08	50385	8.81318e-06
287	186.369	0.0648499	0.0648804	1.32751e-06	-4.69666e-06	-6.02417e-06	8.61296e-08	48873.6	8.88104e-06
288	186.419	0.0598145	0.0598145	1.24664e-06	-4.75159e-06	-5.99823e-06	7.45673e-08	47980.4	8.9454e-06
289	186.469	0.0547791	0.054718	1.14929e-06	-4.76379e-06	-5.91309e-06	6.2887e-08	47610.2	9.00529e-06
290	186.519	0.0497437	0.0497986	1.03271e-06	-4.73328e-06	-5.76599e-06	5.14277e-08	48221	9.05985e-06
291	186.569	0.0447083	0.0447998	9.09729e-07	-4.66309e-06	-5.57281e-06	4.07557e-08	49245.2	9.10841e-06
292	186.619	0.0396729	0.0397461	7.72705e-07	-4.55627e-06	-5.32898e-06	3.0712e-08	51437.6	9.15047e-06
293	186.669	0.0346375	0.0347168	6.28967e-07	-4.41895e-06	-5.04791e-06	2.18357e-08	55196.5	9.18551e-06
294	186.719	0.0296021	0.0296661	4.82178e-07	-4.26025e-06	-4.74243e-06	1.43043e-08	61525.3	9.21329e-06
295	186.769	0.0245667	0.0246033	3.34778e-07	-4.08447e-06	-4.41925e-06	8.23663e-09	73491.3	9.23371e-06
296	186.819	0.01953125	0.0195923	1.89514e-07	-3.89862e-06	-4.08813e-06	3.71302e-09	103382	9.24682e-06
297	186.869	0.0144958	0.0145996	5.06592e-08	-3.71094e-06	-3.7616e-06	7.39604e-10	288193	9.25282e-06
298	186.919	0.00946045	0.00956421	-7.96509e-08	-3.52661e-06	-3.44696e-06	-7.61798e-10	-120077	9.2521e-06
299	186.969	0.00442505	0.00453186	-1.98975e-07	-3.34869e-06	-3.14972e-06	-9.01725e-10	-22776.1	9.24513e-06
300	187.019	-0.000610352	-0.000521851	-3.06396e-07	-3.18451e-06	-2.87811e-06	1.59893e-10	1703.19	9.2325e-06
301	187.069	-0.00564575	-0.00559082	-4.03748e-07	-3.02979e-06	-2.62604e-06	2.25728e-09	13847.3	9.21474e-06
302	187.119	-0.0106812	-0.0105896	-4.84009e-07	-2.88757e-06	-2.40356e-06	5.12546e-09	21878.9	9.19255e-06
303	187.169	-0.0157166	-0.0155975	-5.51147e-07	-2.75818e-06	-2.20703e-06	8.59654e-09	28300.1	9.16667e-06
304	187.219	-0.020752	-0.0206268	-6.06384e-07	-2.6416e-06	-2.03522e-06	1.25078e-08	34016.1	9.13773e-06
305	187.269	-0.0257874	-0.0256897	-6.48804e-07	-2.53693e-06	-1.88812e-06	1.66676e-08	39595.5	9.10635e-06
306	187.319	-0.0308228	-0.0307129	-6.81763e-07	-2.44415e-06	-1.76239e-06	2.09389e-08	45049.2	9.07309e-06
307	187.369	-0.0358582	-0.0357422	-7.05261e-07	-2.36176e-06	-1.65649e-06	2.52076e-08	50679.4	9.03841e-06
308	187.419	-0.0408936	-0.0408051	-7.21436e-07	-2.28851e-06	-1.56708e-06	2.94382e-08	56560.9	9.00275e-06
309	187.469	-0.045929	-0.0457916	-7.30896e-07	-2.22443e-06	-1.49353e-06	3.34689e-08	62651.4	8.96644e-06
310	187.519	-0.0509644	-0.0509033	-7.32727e-07	-2.16736e-06	-1.43463e-06	3.72982e-08	69471.1	8.92985e-06
311	187.569	-0.0559998	-0.0559998	-7.34253e-07	-2.117e-06	-1.38275e-06	4.1118e-08	76267.7	8.89317e-06
312	187.619	-0.0610352	-0.0610046	-7.30591e-07	-2.07275e-06	-1.34216e-06	4.45694e-08	83500.4	8.85655e-06
313	187.669	-0.0660706	-0.0660706	-7.23877e-07	-2.03369e-06	-1.30981e-06	4.7827e-08	91273.2	8.82019e-06
314	187.719	-0.071106	-0.0710449	-7.15637e-07	-1.9989e-06	-1.28326e-06	5.08424e-08	99275.1	8.7842e-06
315	187.769	-0.0761414	-0.0760803	-7.05261e-07	-1.96747e-06	-1.26221e-06	5.36565e-08	107875	8.74868e-06
316	187.819	-0.0811768	-0.0811157	-6.9519e-07	-1.94031e-06	-1.24512e-06	5.63909e-08	116681	8.71367e-06
317	187.869	-0.0862122	-0.0861206	-6.83289e-07	-1.91589e-06	-1.2326e-06	5.88452e-08	126038	8.67921e-06
318	187.919	-0.0912476	-0.091217	-6.70776e-07	-1.89484e-06	-1.22406e-06	6.11862e-08	135987	8.64535e-06
319	187.969	-0.096283	-0.0962524	-6.58569e-07	-1.87469e-06	-1.21613e-06	6.33889e-08	146154	8.61212e-06
320	188.019	-0.101318	-0.101227	-6.46362e-07	-1.8576e-06	-1.21124e-06	6.54292e-08	156610	8.5795e-06
321	188.069	-0.106354	-0.106293	-6.34155e-07	-1.84204e-06	-1.20789e-06	6.74061e-08	167613	8.54748e-06
322	188.119	-0.111389	-0.111298	-6.21948e-07	-1.828e-06	-1.20605e-06	6.92214e-08	178950	8.51608e-06
323	188.169	-0.116425	-0.116302	-6.10352e-07	-1.81488e-06	-1.20453e-06	7.09854e-08	190550	8.48528e-06
324	188.219	-0.12146	-0.121338	-5.98755e-07	-1.80328e-06	-1.20453e-06	7.26517e-08	202650	8.45505e-06
325	188.269	-0.126495	-0.126465	-5.87769e-07	-1.7926e-06	-1.20483e-06	7.43321e-08	215161	8.42538e-06
326	188.319	-0.131531	-0.13147	-5.76782e-07	-1.78345e-06	-1.20667e-06	7.58294e-08	227937	8.39627e-06
327	188.369	-0.136566	-0.136475	-5.66711e-07	-1.77521e-06	-1.2085e-06	7.73417e-08	240819	8.36768e-06
328	188.419	-0.141602	-0.141541	-5.56335e-07	-1.76758e-06	-1.21124e-06	7.8744e-08	254416	8.33961e-06
329	188.469	-0.146637	-0.146515	-5.4718e-07	-1.76117e-06	-1.21399e-06	8.017e-08	267764	8.31202e-06
330	188.519	-0.151672	-0.151611	-5.3772e-07	-1.75568e-06	-1.21796e-06	8.15244e-08	281952	8.2849e-06
331	188.569	-0.156708	-0.156616	-5.2948e-07	-1.74988e-06	-1.2204e-06	8.29251e-08	295793	8.25822e-06
332	188.619	-0.161743	-0.161652	-5.20935e-07	-1.7453e-06	-1.22437e-06	8.421e-08	310310.5	8.23196e-06
333	188.669	-0.166779	-0.166687	-5.13306e-07	-1.74194e-06	-1.22864e-06	8.55614e-08	324732	8.2061e-06
334	188.719	-0.171814	-0.171692	-5.05981e-07	-1.73859e-06	-1.2326e-06	8.68729e-08	339324.5	8.18062e-06
335	188.769	-0.176849	-0.176758	-4.99573e-07	-1.73584e-06	-1.23627e-06	8.83034e-08	353818	8.15548e-06
336	188.819	-0.181885	-0.181702	-4.92859e-07	-1.73309e-06	-1.24023e-06	8.95533e-08	368668.75	8.13067e-06
337	188.869	-0.18692	-0.186768	-4.86755e-07	-1.73096e-06	-1.2442e-06	9.09101e-08	383699	8.10618e-06
338	188.919	-0.191956	-0.191864	-4.80652e-07	-1.72943e-06	-1.24878e-06	9.22198e-08	399175	8.08199e-06
339	188.969	-0.196991	-0.196899	-4.75464e-07	-1.72729e-06	-1.25183e-06	9.36186e-08	414121	8.05809e-06
340	189.019	-0.202026	-0.201935	-4.70276e-07	-1.72668e-06	-1.25641e-06	9.49651e-08	429396.5	8.03445e-06