File: Raw Electrochem Data/Oligomer 1/Blank electrolyte/DPV_Anodic_Trace.txt
Potential - Start -0.205 V, Stop 1.505 V, Step 0.005 V; Modulation - Amplitude 0.05 V, Time 0.025 s, Interval time 0.05 s
Index	Base.Time (s)	Potential applied (V)	WE(1).Base.Potential (V)	WE(1).Base.Current (A)	WE(1).Pulse.Current (A)	WE(1).δ.Current (A)	WE(1).Base.Power (W)	WE(1).Base.Resistance (Ω)	WE(1).Base.Charge (C)
1	148.696	-0.204926		-3.36914e-07	4.29382e-07	7.66296e-07	6.90114e-08	607971	0
2	148.746	-0.19989		-5.87158e-07	3.92151e-07	9.79309e-07	1.17313e-07	340281	-2.31018e-08
3	148.796	-0.194855		-5.90515e-07	3.95508e-07	9.86023e-07	1.14975e-07	329716	-5.25436e-08
4	148.846	-0.189819		-5.8197e-07	4.05273e-07	9.87244e-07	1.1038e-07	325905	-8.18558e-08
5	148.896	-0.184784		-5.72205e-07	4.15955e-07	9.88159e-07	1.05647e-07	322667	-1.1071e-07
6	148.946	-0.179749		-5.61523e-07	4.27551e-07	9.89075e-07	1.00847e-07	319837	-1.39053e-07
7	148.996	-0.174713		-5.51758e-07	4.39453e-07	9.91211e-07	9.6332e-08	316427	-1.66885e-07
8	149.046	-0.169678		-5.42908e-07	4.50745e-07	9.93652e-07	9.20862e-08	312423	-1.94252e-07
9	149.096	-0.164642		-5.34668e-07	4.63562e-07	9.9823e-07	8.798e-08	307763	-2.21191e-07
10	149.146	-0.159607		-5.27039e-07	4.75769e-07	1.00281e-06	8.40547e-08	302606	-2.47734e-07
11	149.196	-0.154572		-5.19714e-07	4.88892e-07	1.00861e-06	8.03013e-08	297299	-2.73903e-07
12	149.246	-0.149536		-5.13611e-07	5.02625e-07	1.01624e-06	7.67877e-08	291087	-2.99736e-07
13	149.296	-0.144501		-5.08118e-07	5.17273e-07	1.02539e-06	7.33458e-08	284084	-3.25279e-07
14	149.346	-0.139465		-5.0354e-07	5.32532e-07	1.03607e-06	7.01649e-08	276727	-3.50571e-07
15	149.396	-0.13443		-4.99573e-07	5.50842e-07	1.05042e-06	6.70966e-08	268845	-3.75648e-07
16	149.446	-0.129395		-4.95911e-07	5.70679e-07	1.06659e-06	6.41379e-08	260800	-4.00536e-07
17	149.496	-0.124359		-4.9408e-07	5.92041e-07	1.08612e-06	6.14282e-08	251637	-4.25285e-07
18	149.546	-0.119324		-4.93164e-07	6.1676e-07	1.10992e-06	5.8786e-08	241708	-4.49966e-07
19	149.596	-0.114288		-4.93164e-07	6.44836e-07	1.138e-06	5.63328e-08	231621	-4.74625e-07
20	149.646	-0.109253		-4.94995e-07	6.7749e-07	1.17249e-06	5.40797e-08	220715	-4.99329e-07
21	149.696	-0.104218		-4.98962e-07	7.15027e-07	1.21399e-06	5.20006e-08	208869	-5.24178e-07
22	149.746	-0.0991821		-5.05066e-07	7.5592e-07	1.26099e-06	5.00781e-08	196314	-5.49278e-07
23	149.796	-0.0941467		-5.14526e-07	8.05969e-07	1.3205e-06	4.84096e-08	182859	-5.74768e-07
24	149.846	-0.0891113		-5.25818e-07	8.64258e-07	1.39008e-06	4.68563e-08	169472	-6.00777e-07
25	149.896	-0.0840759		-5.39856e-07	9.33228e-07	1.47308e-06	4.53559e-08	155625	-6.27419e-07
26	149.946	-0.0790405		-5.57556e-07	1.01135e-06	1.56891e-06	4.40525e-08	141708	-6.54854e-07
27	149.996	-0.0740051		-5.79529e-07	1.1026e-06	1.68213e-06	4.28881e-08	127699	-6.83281e-07
28	150.046	-0.0689697		-6.05774e-07	1.20667e-06	1.81244e-06	4.17801e-08	113854	-7.12914e-07
29	150.096	-0.0639343		-6.36902e-07	1.3269e-06	1.96381e-06	4.07393e-08	100431	-7.4398e-07
30	150.146	-0.0588989		-6.74133e-07	1.46179e-06	2.13593e-06	3.96852e-08	87324.6	-7.76756e-07
31	150.196	-0.0538635		-7.16858e-07	1.61316e-06	2.33002e-06	3.85906e-08	75095.8	-8.11531e-07
32	150.246	-0.0488281		-7.63245e-07	1.78192e-06	2.54517e-06	3.7163e-08	63794.5	-8.48534e-07
33	150.296	-0.0437927		-8.19702e-07	1.96686e-06	2.78656e-06	3.57794e-08	53250.2	-8.88107e-07
34	150.346	-0.0387573		-8.79211e-07	2.16736e-06	3.04657e-06	3.39471e-08	43915.3	-9.3058e-07
35	150.396	-0.0337219		-9.42993e-07	2.3819e-06	3.32489e-06	3.16816e-08	35627.8	-9.76135e-07
36	150.446	-0.0286865		-1.00983e-06	2.60864e-06	3.61847e-06	2.88513e-08	28292.5	-1.02496e-06
37	150.496	-0.0236511		-1.07666e-06	2.84332e-06	3.91998e-06	2.53065e-08	21831.1	-1.07712e-06
38	150.546	-0.0186157		-1.14288e-06	3.08289e-06	4.22577e-06	2.11186e-08	16168.2	-1.13261e-06
39	150.596	-0.0135803		-1.2027e-06	3.32367e-06	4.52637e-06	1.62082e-08	11205.3	-1.19125e-06
40	150.646	-0.00854492		-1.25488e-06	3.56079e-06	4.81567e-06	1.06118e-08	6738.81	-1.25269e-06
41	150.696	-0.00350952		-1.29578e-06	3.78754e-06	5.08331e-06	4.4052e-09	2623.65	-1.31645e-06
42	150.746	0.00152588		-1.32141e-06	4.00421e-06	5.32562e-06	-2.14536e-09	-1228.64	-1.38188e-06
43	150.796	0.00656128		-1.32294e-06	4.19739e-06	5.52032e-06	-8.77705e-09	-5014.99	-1.44799e-06
44	150.846	0.0115967		-1.30981e-06	4.36401e-06	5.67383e-06	-1.52415e-08	-8883.97	-1.51381e-06
45	150.896	0.0166321		-1.27655e-06	4.50134e-06	5.77789e-06	-2.12862e-08	-13062.4	-1.57847e-06
46	150.946	0.0216675		-1.22131e-06	4.60205e-06	5.82336e-06	-2.65448e-08	-17796.1	-1.64091e-06
47	150.996	0.0267029		-1.14532e-06	4.66919e-06	5.81451e-06	-3.06708e-08	-23381.3	-1.70008e-06
48	151.046	0.0317383		-1.05286e-06	4.69666e-06	5.74951e-06	-3.34608e-08	-30185.5	-1.75504e-06
49	151.096	0.0367737		-9.42993e-07	4.6814e-06	5.62439e-06	-3.47119e-08	-39035.6	-1.80493e-06
50	151.146	0.0418091		-8.18787e-07	4.62952e-06	5.4483e-06	-3.43127e-08	-51181.5	-1.84898e-06
51	151.196	0.0468445		-6.83594e-07	4.53796e-06	5.22156e-06	-3.20977e-08	-68687.5	-1.88654e-06
52	151.246	0.0518799		-5.44739e-07	4.41895e-06	4.96368e-06	-2.82942e-08	-95350.1	-1.91724e-06
53	151.296	0.0569153		-3.94897e-07	4.27551e-06	4.67041e-06	-2.24878e-08	-144204	-1.94073e-06
54	151.346	0.0619507		-2.46277e-07	4.11072e-06	4.35699e-06	-1.52645e-08	-251672.875	-1.95676e-06
55	151.396	0.0669861		-9.91821e-08	3.93524e-06	4.03442e-06	-6.64685e-09	-675692	-1.9654e-06
56	151.446	0.0720215		4.24194e-08	3.75458e-06	3.71216e-06	3.05641e-09	1698561.125	-1.96682e-06
57	151.496	0.0770569		1.76697e-07	3.57361e-06	3.39691e-06	1.36319e-08	436614.875	-1.96134e-06
58	151.546	0.0820923		3.02124e-07	3.3963e-06	3.09418e-06	2.48113e-08	271818	-1.94937e-06
59	151.596	0.0871277		4.15649e-07	3.22723e-06	2.81158e-06	3.62146e-08	209618	-1.93143e-06
60	151.646	0.0921631		5.16357e-07	3.06885e-06	2.55249e-06	4.75891e-08	178487	-1.90813e-06
61	151.696	0.0971985		6.04248e-07	2.92175e-06	2.3175e-06	5.87689e-08	160960	-1.88011e-06
62	151.746	0.102234		6.79321e-07	2.78687e-06	2.10754e-06	6.94911e-08	150584	-1.84802e-06
63	151.796	0.107269		7.41882e-07	2.66388e-06	1.922e-06	7.95812e-08	144591	-1.81249e-06
64	151.846	0.112305		7.92236e-07	2.55249e-06	1.76025e-06	8.89235e-08	141679.5	-1.77414e-06
65	151.896	0.11734		8.3313e-07	2.4527e-06	1.61957e-06	9.77595e-08	140842	-1.73351e-06
66	151.946	0.122375		8.64868e-07	2.36206e-06	1.49719e-06	1.05865e-07	141531	-1.69106e-06
67	151.996	0.127411		8.88062e-07	2.28149e-06	1.39343e-06	1.13149e-07	143471	-1.64723e-06
68	152.046	0.132446		9.03931e-07	2.20886e-06	1.30493e-06	1.19722e-07	146522.625	-1.60243e-06
69	152.096	0.137482		9.14612e-07	2.14355e-06	1.22894e-06	1.25687e-07	150250.25	-1.55697e-06
70	152.146	0.142517		9.2041e-07	2.08496e-06	1.16455e-06	1.31174e-07	154841	-1.51109e-06
71	152.196	0.147552		9.22546e-07	2.03217e-06	1.10962e-06	1.36152e-07	159974	-1.46502e-06
72	152.246	0.152588		9.21021e-07	1.98517e-06	1.06415e-06	1.40565e-07	165706	-1.41893e-06
73	152.296	0.157623		9.17969e-07	1.94275e-06	1.02478e-06	1.44693e-07	171709	-1.37296e-06
74	152.346	0.162659		9.12781e-07	1.90369e-06	9.90906e-07	1.48472e-07	178201	-1.32719e-06
75	152.396	0.167694		9.06067e-07	1.86829e-06	9.62219e-07	1.52025e-07	185180	-1.28172e-06
76	152.446	0.172729		8.98743e-07	1.83563e-06	9.3689e-07	1.55267e-07	192224	-1.2366e-06
77	152.496	0.177765		8.90808e-07	1.80573e-06	9.14917e-07	1.58436e-07	199657	-1.19186e-06
78	152.546	0.1828		8.82263e-07	1.77856e-06	8.96301e-07	1.61305e-07	207229	-1.14753e-06
79	152.596	0.187836		8.73718e-07	1.75323e-06	8.79517e-07	1.64115e-07	214984	-1.10363e-06
80	152.646	0.192871		8.64563e-07	1.72974e-06	8.65173e-07	1.66749e-07	223085	-1.06017e-06
81	152.696	0.197906		8.55713e-07	1.70776e-06	8.52051e-07	1.69377e-07	231312	-1.01717e-06
82	152.746	0.202942		8.46558e-07	1.68671e-06	8.40149e-07	1.71828e-07	239762	-9.74609e-07
83	152.796	0.207977		8.38318e-07	1.66809e-06	8.29773e-07	1.74377e-07	248125	-9.32487e-07
84	152.846	0.213013		8.30078e-07	1.64978e-06	8.19702e-07	1.76792e-07	256581	-8.90778e-07
85	152.896	0.218048		8.21533e-07	1.63208e-06	8.10547e-07	1.79109e-07	265379	-8.49487e-07
86	152.946	0.223083		8.13904e-07	1.61591e-06	8.02002e-07	1.81569e-07	274090.75	-8.08601e-07
87	152.996	0.228119		8.06274e-07	1.60034e-06	7.94067e-07	1.83926e-07	282930	-7.68097e-07
88	153.046	0.233154		7.98645e-07	1.58539e-06	7.86743e-07	1.86183e-07	291899.125	-7.27974e-07
89	153.096	0.23819		7.91626e-07	1.57135e-06	7.79724e-07	1.88485e-07	300771	-6.88217e-07
90	153.146	0.243225		7.85217e-07	1.55731e-06	7.72095e-07	1.90937e-07	309677	-6.48796e-07
91	153.196	0.24826		7.78809e-07	1.5448e-06	7.65991e-07	1.93371e-07	318809	-6.09695e-07
92	153.246	0.253296		7.7301e-07	1.53198e-06	7.58972e-07	1.958e-07	327675	-5.709e-07
93	153.296	0.258331		7.66907e-07	1.52039e-06	7.53479e-07	1.98069e-07	336769	-5.32402e-07
94	153.346	0.263367		7.61414e-07	1.5094e-06	7.47986e-07	2.00508e-07	345852	-4.94194e-07
95	153.396	0.268402		7.55615e-07	1.49841e-06	7.42798e-07	2.02809e-07	355210	-4.56268e-07
96	153.446	0.2734375		7.50427e-07	1.48773e-06	7.37305e-07	2.05218e-07	364416	-4.18617e-07
97	153.496	0.278473		7.45239e-07	1.47797e-06	7.32727e-07	2.07506e-07	373628	-3.81226e-07
98	153.546	0.283508		7.40356e-07	1.46729e-06	7.26929e-07	2.09852e-07	382852	-3.44086e-07
99	153.596	0.288544		7.35779e-07	1.45782e-06	7.22046e-07	2.12282e-07	392119	-3.07182e-07
100	153.646	0.293579		7.31201e-07	1.44897e-06	7.17773e-07	2.14643e-07	401461	-2.70508e-07
101	153.696	0.298615		7.26624e-07	1.44043e-06	7.13806e-07	2.17025e-07	411046	-2.34062e-07
102	153.746	0.30365		7.22656e-07	1.43188e-06	7.09229e-07	2.19434e-07	420186	-1.9783e-07
103	153.796	0.308685		7.18079e-07	1.42334e-06	7.05261e-07	2.21616e-07	429792	-1.61812e-07
104	153.846	0.313721		7.14722e-07	1.4151e-06	7.00378e-07	2.24223e-07	438941	-1.25992e-07
105	153.896	0.318756		7.10754e-07	1.40747e-06	6.96716e-07	2.26579e-07	448519	-9.03549e-08
106	153.946	0.323792		7.07092e-07	1.40076e-06	6.93665e-07	2.2895e-07	457920	-5.49087e-08
107	153.996	0.328827		7.04041e-07	1.39343e-06	6.89392e-07	2.31507e-07	467057	-1.96304e-08
108	154.046	0.333862		7.00073e-07	1.38641e-06	6.8634e-07	2.33685e-07	476809	1.54724e-08
109	154.096	0.338898		6.96716e-07	1.38e-06	6.83289e-07	2.36073e-07	486334	5.03922e-08
110	154.146	0.343933		6.93359e-07	1.3739e-06	6.80542e-07	2.38469e-07	496038.75	8.51441e-08
111	154.196	0.348969		6.90308e-07	1.36871e-06	6.78406e-07	2.40896e-07	505526	1.19736e-07
112	154.246	0.354004		6.87561e-07	1.36261e-06	6.75049e-07	2.4342e-07	514913	1.54182e-07
113	154.296	0.359039		6.84204e-07	1.35712e-06	6.72913e-07	2.45656e-07	524755	1.88477e-07
114	154.346	0.364075		6.81152e-07	1.35223e-06	6.71082e-07	2.4797e-07	534453	2.2261e-07
115	154.396	0.36911		6.78406e-07	1.34674e-06	6.68335e-07	2.50365e-07	543994.625	2.56599e-07
116	154.446	0.374146		6.75354e-07	1.34186e-06	6.66504e-07	2.52681e-07	553999.125	2.90443e-07
117	154.496	0.379181		6.73218e-07	1.33728e-06	6.640625E-07	2.55292e-07	563282	3.24158e-07
118	154.546	0.384216		6.70471e-07	1.3324e-06	6.61926e-07	2.57606e-07	573054	3.5775e-07
119	154.596	0.389252		6.6803e-07	1.32782e-06	6.5979e-07	2.60011e-07	582640.5	3.91212e-07
120	154.646	0.394287		6.66504e-07	1.32324e-06	6.56738e-07	2.62774e-07	591529	4.24576e-07
121	154.696	0.399323		6.64368e-07	1.31805e-06	6.53687e-07	2.65297e-07	601057	4.57848e-07
122	154.746	0.404358		6.62537e-07	1.31378e-06	6.51245e-07	2.67882e-07	610272	4.9102e-07
123	154.796	0.409393		6.604e-07	1.3089e-06	6.48499e-07	2.70343e-07	619870.625	5.24094e-07
124	154.846	0.414429		6.5918e-07	1.30402e-06	6.44836e-07	2.73183e-07	628703.75	5.57083e-07
125	154.896	0.419464		6.57654e-07	1.29974e-06	6.4209e-07	2.75822e-07	637726.25	5.90004e-07
126	154.946	0.4245		6.56738e-07	1.29547e-06	6.38733e-07	2.78725e-07	646236	6.22864e-07
127	154.996	0.429535		6.55518e-07	1.29089e-06	6.35376e-07	2.81548e-07	655214	6.5567e-07
128	155.046	0.43457		6.54297e-07	1.28601e-06	6.31714e-07	2.84358e-07	664225.75	6.88416e-07
129	155.096	0.439606		6.53076e-07	1.28235e-06	6.29272e-07	2.87116e-07	673177.625	7.211e-07
130	155.146	0.444641		6.52466e-07	1.27838e-06	6.25916e-07	2.90153e-07	681572	7.53738e-07
131	155.196	0.449677		6.51245e-07	1.27472e-06	6.23474e-07	2.9287e-07	690534.25	7.86331e-07
132	155.246	0.454712		6.5033e-07	1.27075e-06	6.20422e-07	2.95732e-07	699249	8.18871e-07
133	155.296	0.459747		6.49414e-07	1.2674e-06	6.17981e-07	2.98566e-07	707941.75	8.51364e-07
134	155.346	0.464783		6.48193e-07	1.26373e-06	6.1554e-07	3.01289e-07	717090.375	8.83804e-07
135	155.396	0.469818		6.46362e-07	1.26038e-06	6.14014e-07	3.03673e-07	726865	9.16168e-07
136	155.446	0.474854		6.46362e-07	1.25793e-06	6.11572e-07	3.06908e-07	734608.125	9.48486e-07
137	155.496	0.479889		6.44836e-07	1.25458e-06	6.09741e-07	3.0943e-07	744155.25	9.80766e-07
138	155.546	0.484924		6.43921e-07	1.25183e-06	6.0791e-07	3.12233e-07	753033	1.01299e-06
139	155.596	0.48996		6.427e-07	1.24908e-06	6.06384e-07	3.14897e-07	762346	1.04515e-06
140	155.646	0.494995		6.41785e-07	1.24695e-06	6.05164e-07	3.1768e-07	771279.125	1.07726e-06
141	155.696	0.500031		6.41174e-07	1.24451e-06	6.03333e-07	3.20587e-07	779819.125	1.10934e-06
142	155.746	0.505066		6.39954e-07	1.24237e-06	6.02417e-07	3.2316e-07	789079.625	1.14137e-06
143	155.796	0.510101		6.38733e-07	1.23993e-06	6.01196e-07	3.2576e-07	798471.125	1.17333e-06
144	155.846	0.515137		6.38123e-07	1.2381e-06	5.99976e-07	3.2872e-07	807269	1.20525e-06
145	155.896	0.520172		6.37207e-07	1.23627e-06	5.9906e-07	3.31457e-07	816331	1.23714e-06
146	155.946	0.525208		6.36292e-07	1.23444e-06	5.98145e-07	3.34166e-07	825371.75	1.26897e-06
147	155.996	0.530243		6.35681e-07	1.23322e-06	5.97534e-07	3.37046e-07	834085	1.30077e-06
148	156.046	0.535278		6.34766e-07	1.23138e-06	5.96619e-07	3.39718e-07	843125	1.33253e-06
149	156.096	0.540314		6.34155e-07	1.22986e-06	5.95703e-07	3.42604e-07	851925	1.36426e-06
150	156.146	0.545349		6.32935e-07	1.22864e-06	5.95703e-07	3.45151e-07	861571.875	1.39593e-06
151	156.196	0.550385		6.32019e-07	1.22711e-06	5.95093e-07	3.47834e-07	870787.125	1.42756e-06
152	156.246	0.55542		6.31409e-07	1.22681e-06	5.95398e-07	3.50678e-07	879604	1.45914e-06
153	156.296	0.560455		6.31104e-07	1.2262e-06	5.95093e-07	3.53667e-07	887959	1.49071e-06
154	156.346	0.565491		6.30493e-07	1.22559e-06	5.95093e-07	3.565e-07	896805	1.52225e-06
155	156.396	0.570526		6.29883e-07	1.22498e-06	5.95093e-07	3.59365e-07	905766	1.55376e-06
156	156.446	0.575562		6.28662e-07	1.22406e-06	5.95398e-07	3.61834e-07	915534	1.58522e-06
157	156.496	0.580597		6.28357e-07	1.22406e-06	5.95703e-07	3.64784e-07	923895.125	1.61665e-06
158	156.546	0.585632		6.27747e-07	1.22406e-06	5.96313e-07	3.6761e-07	932863	1.64805e-06
159	156.596	0.590668		6.27136e-07	1.22375e-06	5.96619e-07	3.70372e-07	941703	1.67942e-06
160	156.646	0.595703		6.26221e-07	1.22375e-06	5.97534e-07	3.73023e-07	951218	1.71075e-06
161	156.696	0.600739		6.25305e-07	1.22406e-06	5.98755e-07	3.75645e-07	960713	1.74204e-06
162	156.746	0.605774		6.24695e-07	1.22467e-06	5.99976e-07	3.78424e-07	969712	1.77329e-06
163	156.796	0.610809		6.24084e-07	1.22467e-06	6.00586e-07	3.81178e-07	978679.75	1.80451e-06
164	156.846	0.615845		6.23779e-07	1.22589e-06	6.02112e-07	3.84113e-07	987182	1.83571e-06
165	156.896	0.62088		6.23779e-07	1.22681e-06	6.03027e-07	3.87254e-07	995254	1.8669e-06
166	156.946	0.625916		6.23169e-07	1.22742e-06	6.04248e-07	3.90032e-07	1004358.5	1.89807e-06
167	156.996	0.630951		6.22253e-07	1.22833e-06	6.06079e-07	3.9263e-07	1014026.5	1.92921e-06
168	157.046	0.635986		6.22253e-07	1.22986e-06	6.07605e-07	3.95745e-07	1022069.625	1.96032e-06
169	157.096	0.641022		6.21033e-07	1.23077e-06	6.09741e-07	3.98077e-07	1032137.625	1.9914e-06
170	157.146	0.646057		6.20728e-07	1.23199e-06	6.11267e-07	4.00988e-07	1040708	2.02245e-06
171	157.196	0.651093		6.20117e-07	1.23383e-06	6.13708e-07	4.03697e-07	1049803.125	2.05347e-06
172	157.246	0.656128		6.19812e-07	1.23535e-06	6.1554e-07	4.06619e-07	1058444.125	2.08446e-06
173	157.296	0.661163		6.18896e-07	1.23688e-06	6.17981e-07	4.09135e-07	1068146	2.11543e-06
174	157.346	0.666199		6.18896e-07	1.23901e-06	6.20117e-07	4.12233e-07	1076232.75	2.14638e-06
175	157.396	0.671234		6.18591e-07	1.24115e-06	6.22559e-07	4.15163e-07	1084953.125	2.17731e-06
176	157.446	0.67627		6.17676e-07	1.24298e-06	6.25305e-07	4.17678e-07	1094762.875	2.20822e-06
177	157.496	0.681305		6.17371e-07	1.24542e-06	6.28052e-07	4.2058e-07	1103460.25	2.2391e-06
178	157.546	0.68634		6.17065e-07	1.24756e-06	6.30493e-07	4.2346e-07	1112116.75	2.26996e-06
179	157.596	0.691376		6.16455e-07	1.24969e-06	6.3324e-07	4.26146e-07	1121386.125	2.3008e-06
180	157.646	0.696411		6.16455e-07	1.25305e-06	6.36597e-07	4.29212e-07	1129455.5	2.33162e-06
181	157.696	0.701447		6.15845e-07	1.25458e-06	6.38733e-07	4.31926e-07	1138850.375	2.36243e-06
182	157.746	0.706482		6.14929e-07	1.25702e-06	6.4209e-07	4.3438e-07	1148734.5	2.3932e-06
183	157.796	0.711517		6.14624e-07	1.25946e-06	6.44836e-07	4.37259e-07	1157497.5	2.42393e-06
184	157.846	0.716553		6.14014e-07	1.26282e-06	6.48804e-07	4.39879e-07	1166749.625	2.45465e-06
185	157.896	0.721588		6.14014e-07	1.26617e-06	6.52161e-07	4.43027e-07	1175099.5	2.48535e-06
186	157.946	0.726624		6.14319e-07	1.26892e-06	6.54602e-07	4.46285e-07	1182563.375	2.51606e-06
187	157.996	0.731659		6.14014e-07	1.27228e-06	6.58264e-07	4.49174e-07	1191401.625	2.54677e-06
188	158.046	0.736694		6.14014e-07	1.27533e-06	6.61316e-07	4.52303e-07	1199701.875	2.57747e-06
189	158.096	0.74173		6.14014e-07	1.27869e-06	6.64673e-07	4.55413e-07	1207952.375	2.60817e-06
190	158.146	0.746765		6.14014e-07	1.28235e-06	6.68335e-07	4.58468e-07	1216053.75	2.63887e-06
191	158.196	0.751801		6.15234e-07	1.2854e-06	6.70166e-07	4.62815e-07	1222718.375	2.6696e-06
192	158.246	0.756836		6.14929e-07	1.28876e-06	6.73828e-07	4.65588e-07	1231265.5	2.70036e-06
193	158.296	0.761871		6.14624e-07	1.29211e-06	6.7749e-07	4.68546e-07	1240317.75	2.73109e-06
194	158.346	0.766907		6.15234e-07	1.29608e-06	6.80847e-07	4.72203e-07	1247519.875	2.76184e-06
195	158.396	0.771942		6.15845e-07	1.30005e-06	6.84204e-07	4.7549e-07	1253716.5	2.79262e-06
196	158.446	0.776978		6.15845e-07	1.30371e-06	6.87866e-07	4.78873e-07	1262636.25	2.82341e-06
197	158.496	0.782013		6.1676e-07	1.30768e-06	6.90918e-07	4.82032e-07	1267194.5	2.85423e-06
198	158.546	0.787048		6.17065e-07	1.31073e-06	6.93665e-07	4.8566e-07	1275469.875	2.88507e-06
199	158.596	0.792084		6.17676e-07	1.31439e-06	6.96716e-07	4.89534e-07	1283102.75	2.91594e-06
200	158.646	0.797119		6.18286e-07	1.31836e-06	7.00073e-07	4.93036e-07	1289733.5	2.94684e-06
201	158.696	0.802155		6.18591e-07	1.32141e-06	7.0282e-07	4.96111e-07	1296497.375	2.97776e-06
202	158.746	0.80719		6.19507e-07	1.32507e-06	7.05566e-07	5.00249e-07	1303448.375	3.00871e-06
203	158.796	0.812225		6.19812e-07	1.32874e-06	7.08923e-07	5.03522e-07	1310684.375	3.0397e-06
204	158.846	0.817261		6.20422e-07	1.3327e-06	7.1228e-07	5.06857e-07	1316773.375	3.0707e-06
205	158.896	0.822296		6.21643e-07	1.33606e-06	7.14417e-07	5.1127e-07	1323024.125	3.10175e-06
206	158.946	0.827332		6.22864e-07	1.34033e-06	7.17468e-07	5.15125e-07	1327780.5	3.13287e-06
207	158.996	0.832367		6.24084e-07	1.3446e-06	7.2052e-07	5.19753e-07	1334474.375	3.16404e-06
208	159.046	0.837402		6.24695e-07	1.34796e-06	7.23267e-07	5.23502e-07	1341475.375	3.19526e-06
209	159.096	0.842438		6.26221e-07	1.35162e-06	7.25403e-07	5.27456e-07	1345029.25	3.22653e-06
210	159.146	0.847473		6.27441e-07	1.35498e-06	7.27539e-07	5.3174e-07	1350680.875	3.25787e-06
211	159.196	0.852509		6.28662e-07	1.35864e-06	7.2998e-07	5.35844e-07	1355825.25	3.28928e-06
212	159.246	0.857544		6.29883e-07	1.3623e-06	7.32422e-07	5.40537e-07	1362403.125	3.32074e-06
213	159.296	0.862579		6.31714e-07	1.36597e-06	7.34253e-07	5.45e-07	1365700.5	3.35228e-06
214	159.346	0.867615		6.32935e-07	1.36932e-06	7.36389e-07	5.49143e-07	1370781.125	3.3839e-06
215	159.396	0.87265		6.35071e-07	1.37268e-06	7.3761e-07	5.54098e-07	1373858.75	3.4156e-06
216	159.446	0.877686		6.36292e-07	1.37573e-06	7.39441e-07	5.58852e-07	1380335.75	3.44738e-06
217	159.496	0.882721		6.38123e-07	1.37848e-06	7.40356e-07	5.63187e-07	1383070.375	3.47924e-06
218	159.546	0.887756		6.39648e-07	1.38184e-06	7.42188e-07	5.67852e-07	1387881.75	3.51118e-06
219	159.596	0.892792		6.41174e-07	1.38489e-06	7.43713e-07	5.72533e-07	1392670.125	3.54321e-06
220	159.646	0.897827		6.43616e-07	1.38824e-06	7.44629e-07	5.78052e-07	1395448.125	3.57532e-06
221	159.696	0.902863		6.46362e-07	1.39038e-06	7.44019e-07	5.83478e-07	1396600.5	3.60757e-06
222	159.746	0.907898		6.48193e-07	1.39313e-06	7.44934e-07	5.88889e-07	1401600.75	3.63994e-06
223	159.796	0.912933		6.50635e-07	1.39557e-06	7.44934e-07	5.94284e-07	1403846.125	3.67241e-06
224	159.846	0.917969		6.52771e-07	1.39771e-06	7.44934e-07	5.99223e-07	1406264.625	3.70499e-06
225	159.896	0.923004		6.55212e-07	1.39954e-06	7.44324e-07	6.04664e-07	1408477	3.73769e-06
226	159.946	0.92804		6.57654e-07	1.40167e-06	7.44019e-07	6.1073e-07	1412065	3.77052e-06
227	159.996	0.933075		6.604e-07	1.4035e-06	7.43103e-07	6.16304e-07	1413123.875	3.80347e-06
228	160.046	0.93811		6.63452e-07	1.40472e-06	7.41272e-07	6.22391e-07	1413983.5	3.83656e-06
229	160.096	0.943146		6.66199e-07	1.40564e-06	7.39441e-07	6.28424e-07	1415941.375	3.8698e-06
230	160.146	0.948181		6.68945e-07	1.40686e-06	7.37915e-07	6.34281e-07	1417427	3.90318e-06
231	160.196	0.953217		6.71997e-07	1.40839e-06	7.36389e-07	6.40661e-07	1418710.375	3.93671e-06
232	160.246	0.958252		6.75049e-07	1.409e-06	7.33948e-07	6.47073e-07	1419982	3.97038e-06
233	160.296	0.963287		6.78101e-07	1.40961e-06	7.31506e-07	6.53102e-07	1420342.125	4.00421e-06
234	160.346	0.968323		6.81458e-07	1.41022e-06	7.2876e-07	6.59663e-07	1420510.625	4.0382e-06
235	160.396	0.973358		6.83899e-07	1.40991e-06	7.26013e-07	6.65992e-07	1423917.875	4.07233e-06
236	160.446	0.978394		6.87561e-07	1.40961e-06	7.22046e-07	6.72915e-07	1423435.5	4.10662e-06
237	160.496	0.983429		6.90918e-07	1.40961e-06	7.18689e-07	6.79574e-07	1423586.625	4.14108e-06
238	160.546	0.988464		6.9397e-07	1.40961e-06	7.15637e-07	6.85753e-07	1423922.625	4.1757e-06
239	160.596	0.9935		6.97327e-07	1.40869e-06	7.11365e-07	6.92687e-07	1424507.75	4.21049e-06
240	160.646	0.998535		7.00378e-07	1.40808e-06	7.07703e-07	6.99566e-07	1426143.875	4.24543e-06
241	160.696	1.00357		7.04041e-07	1.40747e-06	7.0343e-07	7.06447e-07	1425227.5	4.28054e-06
242	160.746	1.00861		7.07092e-07	1.40717e-06	7.00073e-07	7.13177e-07	1426413.5	4.31582e-06
243	160.796	1.01364		7.10449e-07	1.40533e-06	6.94885e-07	7.20249e-07	1426975.875	4.35126e-06
244	160.846	1.01868		7.13806e-07	1.40442e-06	6.90613e-07	7.27138e-07	1427105.625	4.38686e-06
245	160.896	1.02371		7.16858e-07	1.40259e-06	6.8573e-07	7.33528e-07	1427416	4.42263e-06
246	160.946	1.02875		7.1991e-07	1.40167e-06	6.81763e-07	7.40386e-07	1428571.5	4.45855e-06
247	160.996	1.03378		7.22961e-07	1.40076e-06	6.77795e-07	7.47275e-07	1429717.125	4.49462e-06
248	161.046	1.03882		7.26318e-07	1.39923e-06	6.72913e-07	7.54291e-07	1429832	4.53085e-06
249	161.096	1.04385		7.29065e-07	1.39801e-06	6.68945e-07	7.61148e-07	1431979.875	4.56724e-06
250	161.146	1.04889		7.31506e-07	1.39618e-06	6.64673e-07	7.66823e-07	1433041.375	4.60375e-06
251	161.196	1.05392		7.34253e-07	1.39496e-06	6.60706e-07	7.73735e-07	1435162.125	4.6404e-06
252	161.246	1.05896		7.37e-07	1.39343e-06	6.56433e-07	7.80228e-07	1436439	4.67718e-06
253	161.296	1.064		7.39136e-07	1.39221e-06	6.53076e-07	7.86324e-07	1439306.375	4.71408e-06
254	161.346	1.06903		7.41272e-07	1.39099e-06	6.49719e-07	7.92669e-07	1442569	4.75109e-06
255	161.396	1.07407		7.43713e-07	1.38977e-06	6.46057e-07	7.98684e-07	1443988.5	4.78822e-06
256	161.446	1.0791		7.4585e-07	1.38916e-06	6.43311e-07	8.0462e-07	1446399.375	4.82545e-06
257	161.496	1.08414		7.47681e-07	1.38885e-06	6.41174e-07	8.10702e-07	1450204.125	4.86279e-06
258	161.546	1.08917		7.49817e-07	1.38824e-06	6.38428e-07	8.16222e-07	1451770.5	4.90023e-06
259	161.596	1.09421		7.51953e-07	1.38794e-06	6.35986e-07	8.22678e-07	1454951.375	4.93777e-06
260	161.646	1.09924		7.53784e-07	1.38794e-06	6.34155e-07	8.28592e-07	1458299.625	4.97542e-06
261	161.696	1.10428		7.55615e-07	1.38824e-06	6.32629e-07	8.34294e-07	1461227.875	5.01315e-06
262	161.746	1.10931		7.57446e-07	1.38824e-06	6.30798e-07	8.40708e-07	1465350.5	5.05098e-06
263	161.796	1.11435		7.59583e-07	1.38885e-06	6.29272e-07	8.46556e-07	1467255.875	5.08891e-06
264	161.846	1.11938		7.60193e-07	1.38947e-06	6.29272e-07	8.50716e-07	1472099.625	5.1269e-06
265	161.896	1.12442		7.62329e-07	1.38977e-06	6.27441e-07	8.57062e-07	1474779.875	5.16496e-06
266	161.946	1.12946		7.62939e-07	1.39069e-06	6.27747e-07	8.61706e-07	1480400.125	5.20309e-06
267	161.996	1.13449		7.65076e-07	1.3913e-06	6.26221e-07	8.67855e-07	1482648.625	5.24129e-06
268	162.046	1.13953		7.66296e-07	1.39252e-06	6.26221e-07	8.73449e-07	1487455.25	5.27958e-06
269	162.096	1.14456		7.67822e-07	1.39343e-06	6.2561e-07	8.78703e-07	1490461.125	5.31793e-06
270	162.146	1.1496		7.69348e-07	1.39465e-06	6.25305e-07	8.84675e-07	1494645	5.35636e-06
271	162.196	1.15463		7.70569e-07	1.39587e-06	6.25305e-07	8.89606e-07	1498217.875	5.39486e-06
272	162.246	1.15967		7.72705e-07	1.39771e-06	6.25e-07	8.96317e-07	1501184.875	5.43344e-06
273	162.296	1.1647		7.74231e-07	1.39923e-06	6.25e-07	9.01631e-07	1504138.75	5.47211e-06
274	162.346	1.16974		7.75757e-07	1.40076e-06	6.25e-07	9.07433e-07	1507867.875	5.51086e-06
275	162.396	1.17477		7.77283e-07	1.40198e-06	6.24695e-07	9.12539e-07	1510404.375	5.54969e-06
276	162.446	1.17981		7.79114e-07	1.40381e-06	6.24695e-07	9.19206e-07	1514297	5.5886e-06
277	162.496	1.18484		7.80334e-07	1.40564e-06	6.25305e-07	9.24218e-07	1517794.375	5.62759e-06
278	162.546	1.18988		7.82471e-07	1.40717e-06	6.24695e-07	9.30808e-07	1520280.875	5.66666e-06
279	162.596	1.19492		7.84302e-07	1.40869e-06	6.2439e-07	9.37294e-07	1523735.5	5.70583e-06
280	162.646	1.19995		7.86133e-07	1.41052e-06	6.2439e-07	9.43081e-07	1526009.375	5.74509e-06
281	162.696	1.20499		7.87964e-07	1.41235e-06	6.2439e-07	9.49606e-07	1529434.5	5.78444e-06
282	162.746	1.21002		7.8949e-07	1.41418e-06	6.24695e-07	9.55059e-07	1532276.875	5.82388e-06
283	162.796	1.21506		7.92236e-07	1.41602e-06	6.23779e-07	9.62492e-07	1533513.125	5.86342e-06
284	162.846	1.22009		7.93762e-07	1.41785e-06	6.24084e-07	9.68463e-07	1537101.125	5.90307e-06
285	162.896	1.22513		7.95593e-07	1.41937e-06	6.23779e-07	9.74582e-07	1539700.875	5.9428e-06
286	162.946	1.23016		7.97424e-07	1.4209e-06	6.23474e-07	9.80962e-07	1542671.25	5.98263e-06
287	162.996	1.2352		7.99561e-07	1.42303e-06	6.23474e-07	9.87494e-07	1544656.5	6.02255e-06
288	163.046	1.24023		8.01086e-07	1.42487e-06	6.23779e-07	9.9329e-07	1547809.625	6.06257e-06
289	163.096	1.24527		8.03223e-07	1.4267e-06	6.23474e-07	1.00035e-06	1550532	6.10268e-06
290	163.146	1.25031		8.04749e-07	1.42822e-06	6.23474e-07	1.00594e-06	1553280.25	6.14288e-06
291	163.196	1.25534		8.06274e-07	1.43005e-06	6.23779e-07	1.01252e-06	1557532.25	6.18315e-06
292	163.246	1.26038		8.08105e-07	1.43158e-06	6.23474e-07	1.01876e-06	1560045.375	6.22351e-06
293	163.296	1.26541		8.09937e-07	1.43341e-06	6.23474e-07	1.02503e-06	1562547.125	6.26396e-06
294	163.346	1.27045		8.11768e-07	1.43524e-06	6.23474e-07	1.03106e-06	1564661.625	6.3045e-06
295	163.396	1.27548		8.12988e-07	1.43707e-06	6.24084e-07	1.03683e-06	1568693.75	6.34512e-06
296	163.446	1.28052		8.14819e-07	1.43951e-06	6.24695e-07	1.04289e-06	1570786.5	6.38582e-06
297	163.496	1.28555		8.1665e-07	1.44165e-06	6.25e-07	1.04997e-06	1574364.75	6.42661e-06
298	163.546	1.29059		8.18176e-07	1.44318e-06	6.25e-07	1.05618e-06	1577769.5	6.46748e-06
299	163.596	1.29562		8.19702e-07	1.44592e-06	6.26221e-07	1.0624e-06	1581161.625	6.50842e-06
300	163.646	1.30066		8.21228e-07	1.44775e-06	6.26526e-07	1.06789e-06	1583426.25	6.54945e-06
301	163.696	1.30569		8.22754e-07	1.4502e-06	6.27441e-07	1.07414e-06	1586795.375	6.59055e-06
302	163.746	1.31073		8.2428e-07	1.45264e-06	6.28357e-07	1.08041e-06	1590151.875	6.63172e-06
303	163.796	1.31577		8.25806e-07	1.45538e-06	6.29578e-07	1.08694e-06	1593865.5	6.67297e-06
304	163.846	1.3208		8.27637e-07	1.45874e-06	6.31104e-07	1.0934e-06	1596239	6.71431e-06
305	163.896	1.32584		8.29468e-07	1.46179e-06	6.32324e-07	1.10012e-06	1598969.875	6.75574e-06
306	163.946	1.33087		8.31299e-07	1.46454e-06	6.3324e-07	1.10635e-06	1600954.5	6.79726e-06
307	163.996	1.33591		8.3252e-07	1.4682e-06	6.35681e-07	1.1123e-06	1604838.75	6.83885e-06
308	164.046	1.34094		8.34961e-07	1.47156e-06	6.36597e-07	1.11938e-06	1605628.625	6.88054e-06
309	164.096	1.34598		8.36487e-07	1.47552e-06	6.39038e-07	1.12525e-06	1608172.25	6.92233e-06
310	164.146	1.35101		8.38318e-07	1.47858e-06	6.40259e-07	1.13283e-06	1611940.25	6.9642e-06
311	164.196	1.35605		8.40759e-07	1.48315e-06	6.42395e-07	1.13998e-06	1612704.25	7.00617e-06
312	164.246	1.36108		8.43201e-07	1.48712e-06	6.43921e-07	1.14767e-06	1614187.5	7.04827e-06
313	164.296	1.36612		8.44727e-07	1.49139e-06	6.46667e-07	1.15413e-06	1617413.375	7.09047e-06
314	164.346	1.37115		8.47168e-07	1.49597e-06	6.48804e-07	1.1616e-06	1618515.875	7.13277e-06
315	164.396	1.37619		8.49915e-07	1.50055e-06	6.50635e-07	1.16926e-06	1618671.5	7.17519e-06
316	164.446	1.38123		8.52051e-07	1.50513e-06	6.53076e-07	1.17687e-06	1621060.25	7.21774e-06
317	164.496	1.38626		8.54492e-07	1.51001e-06	6.55518e-07	1.18442e-06	1622142.875	7.26041e-06
318	164.546	1.3913		8.57239e-07	1.5152e-06	6.57959e-07	1.19241e-06	1622641.5	7.3032e-06
319	164.596	1.39633		8.59985e-07	1.52008e-06	6.60095e-07	1.20043e-06	1623137	7.34613e-06
320	164.646	1.40137		8.63037e-07	1.52527e-06	6.62231e-07	1.20917e-06	1623408.75	7.38921e-06
321	164.696	1.4064		8.65784e-07	1.53046e-06	6.64673e-07	1.21751e-06	1624251	7.43243e-06
322	164.746	1.41144		8.68225e-07	1.53534e-06	6.67114e-07	1.22571e-06	1626010.625	7.47578e-06
323	164.796	1.41647		8.71277e-07	1.54114e-06	6.69861e-07	1.23454e-06	1626269.75	7.51926e-06
324	164.846	1.42151		8.74634e-07	1.54694e-06	6.72302e-07	1.2433e-06	1625261.75	7.56291e-06
325	164.896	1.42654		8.77686e-07	1.55212e-06	6.74438e-07	1.25192e-06	1625173.875	7.60672e-06
326	164.946	1.43158		8.81042e-07	1.55731e-06	6.7627e-07	1.26155e-06	1625216.5	7.65069e-06
327	164.996	1.43661		8.83484e-07	1.56281e-06	6.79321e-07	1.26909e-06	1625906.75	7.6948e-06
328	165.046	1.44165		8.87146e-07	1.56799e-06	6.80847e-07	1.27895e-06	1625043	7.73907e-06
329	165.096	1.44669		8.90198e-07	1.57318e-06	6.82983e-07	1.2877e-06	1624957.25	7.7835e-06
330	165.146	1.45172		8.9386e-07	1.57837e-06	6.84509e-07	1.29736e-06	1623762.375	7.8281e-06
331	165.196	1.45676		8.96912e-07	1.58417e-06	6.87256e-07	1.30645e-06	1624021.75	7.87287e-06
332	165.246	1.46179		8.99658e-07	1.58875e-06	6.89087e-07	1.31511e-06	1624830.5	7.91779e-06
333	165.296	1.46683		9.0332e-07	1.59393e-06	6.90613e-07	1.32543e-06	1624324.375	7.96286e-06
334	165.346	1.47186		9.06982e-07	1.59882e-06	6.91833e-07	1.33523e-06	1623149.5	8.00812e-06
335	165.396	1.4769		9.10034e-07	1.6037e-06	6.93665e-07	1.34389e-06	1622736.5	8.05354e-06
336	165.446	1.48193		9.12781e-07	1.60828e-06	6.95496e-07	1.35212e-06	1622868.625	8.09911e-06
337	165.496	1.48697		9.15833e-07	1.61255e-06	6.96716e-07	1.3614e-06	1623125.625	8.14483e-06
338	165.546	1.492		9.18884e-07	1.61682e-06	6.97937e-07	1.37098e-06	1623713.125	8.1907e-06
339	165.596	1.49704		9.21936e-07	1.6214e-06	6.99463e-07	1.37975e-06	1623303.625	8.23672e-06
340	165.646	1.50208		9.24683e-07	1.62567e-06	7.00989e-07	1.38922e-06	1624752.5	8.28288e-06